PreguntaOn,PreguntaOff,Colors,RepeticionOn.thisRepN,RepeticionOn.thisTrialN,RepeticionOn.thisN,RepeticionOn.thisIndex,trials.thisRepN,trials.thisTrialN,trials.thisN,trials.thisIndex,trials_2.thisRepN,trials_2.thisTrialN,trials_2.thisN,trials_2.thisIndex,trials_3.thisRepN,trials_3.thisTrialN,trials_3.thisN,trials_3.thisIndex,trials_4.thisRepN,trials_4.thisTrialN,trials_4.thisN,trials_4.thisIndex,trials_5.thisRepN,trials_5.thisTrialN,trials_5.thisN,trials_5.thisIndex,trials_6.thisRepN,trials_6.thisTrialN,trials_6.thisN,trials_6.thisIndex,trials_7.thisRepN,trials_7.thisTrialN,trials_7.thisN,trials_7.thisIndex,trials_8.thisRepN,trials_8.thisTrialN,trials_8.thisN,trials_8.thisIndex,trials_9.thisRepN,trials_9.thisTrialN,trials_9.thisN,trials_9.thisIndex,thisRow.t,notes,introducción_3.started,introducción.started,mouse.started,introducción_3.stopped,mouse.x,mouse.y,mouse.leftButton,mouse.midButton,mouse.rightButton,mouse.time,On.started,CondicionOn.started,On.stopped,Off.started,CondicionOff.started,Off.stopped,On1.started,text.started,On1.stopped,On2.started,text_2.started,On2.stopped,On3.started,text_3.started,On3.stopped,On4.started,text_4.started,On4.stopped,On5.started,text_5.started,On5.stopped,On6.started,text_6.started,On6.stopped,On7.started,text_7.started,On7.stopped,On8.started,text_8.started,On8.stopped,On9.started,text_9.started,On9.stopped,FInalizacion.started,FinPrueba.started,mouse_2.started,FInalizacion.stopped,mouse_2.x,mouse_2.y,mouse_2.leftButton,mouse_2.midButton,mouse_2.rightButton,mouse_2.time,participant,session,date,expName,psychopyVersion,frameRate,expStart,
,,,,,,,,,,,,,,,,,,,,,,,,,,,,,,,,,,,,,,,,,,,,,0.034364799999821116,0.05886119999922812,0.03401269999994838,9.22772729999997,[-0.3738425925925926],[0.017361111111111112],[1],[0],[0],[9.192690599998969],,,,,,,,,,,,,,,,,,,,,,,,,,,,,,,,,,,,,,,,,,,,057148,001,2024-04-30_18h12.35.535,ArchivoPrueba,2024.1.1,None,2024-04-30 18h12.47.803430 -0500,
,,,,,,,,,,,,,,,,,,,,,,,,,,,,,,,,,,,,,,,,,,,,,,,,,,,,,,,9.227866799999902,9.252519599998777,29.243675599998824,,,,,,,,,,,,,,,,,,,,,,,,,,,,,,,,,,,,,,,,,057148,001,2024-04-30_18h12.35.535,ArchivoPrueba,2024.1.1,None,2024-04-30 18h12.47.803430 -0500,
¿Recuerda el recorrido que realiza desde su cama hasta la cocina de su residencia?,1,green,0,0,0,0,,,,,,,,,,,,,,,,,,,,,,,,,,,,,,,,,,,,,29.28527529999883,,,,,,,,,,,,,,,29.25731040000028,29.28527529999883,30.242963400000008,,,,,,,,,,,,,,,,,,,,,,,,,,,,,,,,,,,,,,057148,001,2024-04-30_18h12.35.535,ArchivoPrueba,2024.1.1,None,2024-04-30 18h12.47.803430 -0500,
¿Recuerda el trayecto que hace desde su casa hasta su lugar de trabajo?,3,red,0,1,1,1,,,,,,,,,,,,,,,,,,,,,,,,,,,,,,,,,,,,,30.26718289999917,,,,,,,,,,,,,,,30.243293399998947,30.26718289999917,31.24035290000029,,,,,,,,,,,,,,,,,,,,,,,,,,,,,,,,,,,,,,057148,001,2024-04-30_18h12.35.535,ArchivoPrueba,2024.1.1,None,2024-04-30 18h12.47.803430 -0500,
¿Recuerda  algún inconveniente que ha  experimentado en el camino de su residencia a su lugar de trabajo?,5,white,0,2,2,2,,,,,,,,,,,,,,,,,,,,,,,,,,,,,,,,,,,,,31.266658599999573,,,,,,,,,,,,,,,31.24065789999986,31.266658599999573,32.25612199999887,,,,,,,,,,,,,,,,,,,,,,,,,,,,,,,,,,,,,,057148,001,2024-04-30_18h12.35.535,ArchivoPrueba,2024.1.1,None,2024-04-30 18h12.47.803430 -0500,
¿Recuerda si hay algún lugar u objeto en su camino hacia el trabajo que le llame la atención?,7,blue,0,3,3,3,,,,,,,,,,,,,,,,,,,,,,,,,,,,,,,,,,,,,32.28240089999963,,,,,,,,,,,,,,,32.256424699999116,32.28240089999963,33.23958109999876,,,,,,,,,,,,,,,,,,,,,,,,,,,,,,,,,,,,,,057148,001,2024-04-30_18h12.35.535,ArchivoPrueba,2024.1.1,None,2024-04-30 18h12.47.803430 -0500,
" ¿Recuerda el recorrido desde la entrada de su lugar de trabajo hasta su oficina, donde realiza sus funciones?",9,yellow,0,4,4,4,,,,,,,,,,,,,,,,,,,,,,,,,,,,,,,,,,,,,33.265072000000146,,,,,,,,,,,,,,,33.23984860000019,33.265072000000146,34.23894099999961,,,,,,,,,,,,,,,,,,,,,,,,,,,,,,,,,,,,,,057148,001,2024-04-30_18h12.35.535,ArchivoPrueba,2024.1.1,None,2024-04-30 18h12.47.803430 -0500,
¿Recuerda alguna actividad que realice durante los viajes de regreso a casa desde el trabajo para relajarse?,11,orange,0,5,5,5,,,,,,,,,,,,,,,,,,,,,,,,,,,,,,,,,,,,,34.26729519999935,,,,,,,,,,,,,,,34.23920960000032,34.26729519999935,35.23644299999978,,,,,,,,,,,,,,,,,,,,,,,,,,,,,,,,,,,,,,057148,001,2024-04-30_18h12.35.535,ArchivoPrueba,2024.1.1,None,2024-04-30 18h12.47.803430 -0500,
¿Recuerda el trayecto que realiza desde su casa hasta el lugar donde realiza sus compras?,13,brown,0,6,6,6,,,,,,,,,,,,,,,,,,,,,,,,,,,,,,,,,,,,,35.26589969999986,,,,,,,,,,,,,,,35.23677209999914,35.26589969999986,36.235091999998986,,,,,,,,,,,,,,,,,,,,,,,,,,,,,,,,,,,,,,057148,001,2024-04-30_18h12.35.535,ArchivoPrueba,2024.1.1,None,2024-04-30 18h12.47.803430 -0500,
¿Recuerda alguna situación divertida o interesante que haya experimentado durante el recorrido hacia el lugar de compras?,15,purple,0,7,7,7,,,,,,,,,,,,,,,,,,,,,,,,,,,,,,,,,,,,,36.26514919999863,,,,,,,,,,,,,,,36.23544810000021,36.26514919999863,37.23667959999875,,,,,,,,,,,,,,,,,,,,,,,,,,,,,,,,,,,,,,057148,001,2024-04-30_18h12.35.535,ArchivoPrueba,2024.1.1,None,2024-04-30 18h12.47.803430 -0500,
 ¿Recuerda qué es lo primero que ve al llegar al lugar donde realiza sus compras?,17,green,0,8,8,8,,,,,,,,,,,,,,,,,,,,,,,,,,,,,,,,,,,,,37.26461949999975,,,,,,,,,,,,,,,37.23700699999972,37.26461949999975,38.233712899998864,,,,,,,,,,,,,,,,,,,,,,,,,,,,,,,,,,,,,,057148,001,2024-04-30_18h12.35.535,ArchivoPrueba,2024.1.1,None,2024-04-30 18h12.47.803430 -0500,
¿Recuerda el recorrido desde su residencia hasta el centro de resonancia magnética?,19,red,0,9,9,9,,,,,,,,,,,,,,,,,,,,,,,,,,,,,,,,,,,,,38.263866999999664,,,,,,,,,,,,,,,38.234014300000126,38.263866999999664,39.234781099999964,,,,,,,,,,,,,,,,,,,,,,,,,,,,,,,,,,,,,,057148,001,2024-04-30_18h12.35.535,ArchivoPrueba,2024.1.1,None,2024-04-30 18h12.47.803430 -0500,
None,21,white,0,10,10,10,,,,,,,,,,,,,,,,,,,,,,,,,,,,,,,,,,,,,39.25962849999996,,,,,,,,,,,,,,,39.23507319999953,39.25962849999996,40.23193629999878,,,,,,,,,,,,,,,,,,,,,,,,,,,,,,,,,,,,,,057148,001,2024-04-30_18h12.35.535,ArchivoPrueba,2024.1.1,None,2024-04-30 18h12.47.803430 -0500,
None,23,blue,0,11,11,11,,,,,,,,,,,,,,,,,,,,,,,,,,,,,,,,,,,,,40.261495200000354,,,,,,,,,,,,,,,40.23230259999946,40.261495200000354,41.23322459999872,,,,,,,,,,,,,,,,,,,,,,,,,,,,,,,,,,,,,,057148,001,2024-04-30_18h12.35.535,ArchivoPrueba,2024.1.1,None,2024-04-30 18h12.47.803430 -0500,
None,25,yellow,0,12,12,12,,,,,,,,,,,,,,,,,,,,,,,,,,,,,,,,,,,,,41.26057199999923,,,,,,,,,,,,,,,41.23351509999884,41.26057199999923,42.232099499999094,,,,,,,,,,,,,,,,,,,,,,,,,,,,,,,,,,,,,,057148,001,2024-04-30_18h12.35.535,ArchivoPrueba,2024.1.1,None,2024-04-30 18h12.47.803430 -0500,
None,27,orange,0,13,13,13,,,,,,,,,,,,,,,,,,,,,,,,,,,,,,,,,,,,,42.260053699999844,,,,,,,,,,,,,,,42.23246819999986,42.260053699999844,43.23109739999927,,,,,,,,,,,,,,,,,,,,,,,,,,,,,,,,,,,,,,057148,001,2024-04-30_18h12.35.535,ArchivoPrueba,2024.1.1,None,2024-04-30 18h12.47.803430 -0500,
None,29,brown,0,14,14,14,,,,,,,,,,,,,,,,,,,,,,,,,,,,,,,,,,,,,43.25909299999876,,,,,,,,,,,,,,,43.23136539999905,43.25909299999876,44.2457529000003,,,,,,,,,,,,,,,,,,,,,,,,,,,,,,,,,,,,,,057148,001,2024-04-30_18h12.35.535,ArchivoPrueba,2024.1.1,None,2024-04-30 18h12.47.803430 -0500,
None,31,purple,0,15,15,15,,,,,,,,,,,,,,,,,,,,,,,,,,,,,,,,,,,,,44.27475509999931,,,,,,,,,,,,,,,44.24602489999961,44.27475509999931,45.24440390000018,,,,,,,,,,,,,,,,,,,,,,,,,,,,,,,,,,,,,,057148,001,2024-04-30_18h12.35.535,ArchivoPrueba,2024.1.1,None,2024-04-30 18h12.47.803430 -0500,
None,33,green,0,16,16,16,,,,,,,,,,,,,,,,,,,,,,,,,,,,,,,,,,,,,45.27393959999972,,,,,,,,,,,,,,,45.24469979999958,45.27393959999972,46.24503679999907,,,,,,,,,,,,,,,,,,,,,,,,,,,,,,,,,,,,,,057148,001,2024-04-30_18h12.35.535,ArchivoPrueba,2024.1.1,None,2024-04-30 18h12.47.803430 -0500,
None,35,red,0,17,17,17,,,,,,,,,,,,,,,,,,,,,,,,,,,,,,,,,,,,,46.27336439999999,,,,,,,,,,,,,,,46.24532240000008,46.27336439999999,47.22839449999992,,,,,,,,,,,,,,,,,,,,,,,,,,,,,,,,,,,,,,057148,001,2024-04-30_18h12.35.535,ArchivoPrueba,2024.1.1,None,2024-04-30 18h12.47.803430 -0500,
None,37,white,0,18,18,18,,,,,,,,,,,,,,,,,,,,,,,,,,,,,,,,,,,,,47.25574349999988,,,,,,,,,,,,,,,47.22893149999982,47.25574349999988,48.258558899999116,,,,,,,,,,,,,,,,,,,,,,,,,,,,,,,,,,,,,,057148,001,2024-04-30_18h12.35.535,ArchivoPrueba,2024.1.1,None,2024-04-30 18h12.47.803430 -0500,
None,39,blue,0,19,19,19,,,,,,,,,,,,,,,,,,,,,,,,,,,,,,,,,,,,,48.288186899999346,,,,,,,,,,,,,,,48.258829700000206,48.288186899999346,49.240820999999414,,,,,,,,,,,,,,,,,,,,,,,,,,,,,,,,,,,,,,057148,001,2024-04-30_18h12.35.535,ArchivoPrueba,2024.1.1,None,2024-04-30 18h12.47.803430 -0500,
,,,,,,,,,,,,,,,,,,,,,,,,,,,,,,,,,,,,,,,,,,,,,,,,,,,,,,,,,,,,,49.24089869999989,49.25548079999862,69.2405017000001,,,,,,,,,,,,,,,,,,,,,,,,,,,,,,,,,,,057148,001,2024-04-30_18h12.35.535,ArchivoPrueba,2024.1.1,None,2024-04-30 18h12.47.803430 -0500,
¿Recuerda el recorrido que realiza desde su cama hasta la cocina de su residencia?,1,green,,,,,0,0,0,0,,,,,,,,,,,,,,,,,,,,,,,,,,,,,,,,,69.27031379999971,,,,,,,,,,,,,,,69.25209910000012,69.27031379999971,70.25635369999873,,,,,,,,,,,,,,,,,,,,,,,,,,,,,,,,,,,,,,057148,001,2024-04-30_18h12.35.535,ArchivoPrueba,2024.1.1,None,2024-04-30 18h12.47.803430 -0500,
¿Recuerda el trayecto que hace desde su casa hasta su lugar de trabajo?,3,red,,,,,0,1,1,1,,,,,,,,,,,,,,,,,,,,,,,,,,,,,,,,,70.28576369999973,,,,,,,,,,,,,,,70.25666519999868,70.28576369999973,71.24090520000027,,,,,,,,,,,,,,,,,,,,,,,,,,,,,,,,,,,,,,057148,001,2024-04-30_18h12.35.535,ArchivoPrueba,2024.1.1,None,2024-04-30 18h12.47.803430 -0500,
¿Recuerda  algún inconveniente que ha  experimentado en el camino de su residencia a su lugar de trabajo?,5,white,,,,,0,2,2,2,,,,,,,,,,,,,,,,,,,,,,,,,,,,,,,,,71.26816119999967,,,,,,,,,,,,,,,71.2414461999997,71.26816119999967,72.23953189999884,,,,,,,,,,,,,,,,,,,,,,,,,,,,,,,,,,,,,,057148,001,2024-04-30_18h12.35.535,ArchivoPrueba,2024.1.1,None,2024-04-30 18h12.47.803430 -0500,
¿Recuerda si hay algún lugar u objeto en su camino hacia el trabajo que le llame la atención?,7,blue,,,,,0,3,3,3,,,,,,,,,,,,,,,,,,,,,,,,,,,,,,,,,72.26697749999948,,,,,,,,,,,,,,,72.23992670000007,72.26697749999948,73.25357679999979,,,,,,,,,,,,,,,,,,,,,,,,,,,,,,,,,,,,,,057148,001,2024-04-30_18h12.35.535,ArchivoPrueba,2024.1.1,None,2024-04-30 18h12.47.803430 -0500,
" ¿Recuerda el recorrido desde la entrada de su lugar de trabajo hasta su oficina, donde realiza sus funciones?",9,yellow,,,,,0,4,4,4,,,,,,,,,,,,,,,,,,,,,,,,,,,,,,,,,73.28356519999943,,,,,,,,,,,,,,,73.25389929999983,73.28356519999943,74.24015489999874,,,,,,,,,,,,,,,,,,,,,,,,,,,,,,,,,,,,,,057148,001,2024-04-30_18h12.35.535,ArchivoPrueba,2024.1.1,None,2024-04-30 18h12.47.803430 -0500,
¿Recuerda alguna actividad que realice durante los viajes de regreso a casa desde el trabajo para relajarse?,11,orange,,,,,0,5,5,5,,,,,,,,,,,,,,,,,,,,,,,,,,,,,,,,,74.26594560000012,,,,,,,,,,,,,,,74.24063479999859,74.26594560000012,75.23757829999886,,,,,,,,,,,,,,,,,,,,,,,,,,,,,,,,,,,,,,057148,001,2024-04-30_18h12.35.535,ArchivoPrueba,2024.1.1,None,2024-04-30 18h12.47.803430 -0500,
¿Recuerda el trayecto que realiza desde su casa hasta el lugar donde realiza sus compras?,13,brown,,,,,0,6,6,6,,,,,,,,,,,,,,,,,,,,,,,,,,,,,,,,,75.26494420000017,,,,,,,,,,,,,,,75.2381762999994,75.26494420000017,76.25107380000009,,,,,,,,,,,,,,,,,,,,,,,,,,,,,,,,,,,,,,057148,001,2024-04-30_18h12.35.535,ArchivoPrueba,2024.1.1,None,2024-04-30 18h12.47.803430 -0500,
¿Recuerda alguna situación divertida o interesante que haya experimentado durante el recorrido hacia el lugar de compras?,15,purple,,,,,0,7,7,7,,,,,,,,,,,,,,,,,,,,,,,,,,,,,,,,,76.28093869999975,,,,,,,,,,,,,,,76.25144819999878,76.28093869999975,77.23543379999865,,,,,,,,,,,,,,,,,,,,,,,,,,,,,,,,,,,,,,057148,001,2024-04-30_18h12.35.535,ArchivoPrueba,2024.1.1,None,2024-04-30 18h12.47.803430 -0500,
 ¿Recuerda qué es lo primero que ve al llegar al lugar donde realiza sus compras?,17,green,,,,,0,8,8,8,,,,,,,,,,,,,,,,,,,,,,,,,,,,,,,,,77.26291750000019,,,,,,,,,,,,,,,77.23749809999936,77.26291750000019,78.23250670000016,,,,,,,,,,,,,,,,,,,,,,,,,,,,,,,,,,,,,,057148,001,2024-04-30_18h12.35.535,ArchivoPrueba,2024.1.1,None,2024-04-30 18h12.47.803430 -0500,
¿Recuerda el recorrido desde su residencia hasta el centro de resonancia magnética?,19,red,,,,,0,9,9,9,,,,,,,,,,,,,,,,,,,,,,,,,,,,,,,,,78.26203629999873,,,,,,,,,,,,,,,78.2328108999991,78.26203629999873,79.23495489999914,,,,,,,,,,,,,,,,,,,,,,,,,,,,,,,,,,,,,,057148,001,2024-04-30_18h12.35.535,ArchivoPrueba,2024.1.1,None,2024-04-30 18h12.47.803430 -0500,
None,21,white,,,,,0,10,10,10,,,,,,,,,,,,,,,,,,,,,,,,,,,,,,,,,79.26178939999954,,,,,,,,,,,,,,,79.23571079999965,79.26178939999954,80.23105299999952,,,,,,,,,,,,,,,,,,,,,,,,,,,,,,,,,,,,,,057148,001,2024-04-30_18h12.35.535,ArchivoPrueba,2024.1.1,None,2024-04-30 18h12.47.803430 -0500,
None,23,blue,,,,,0,11,11,11,,,,,,,,,,,,,,,,,,,,,,,,,,,,,,,,,80.2604124999998,,,,,,,,,,,,,,,80.23142899999948,80.2604124999998,81.24625389999892,,,,,,,,,,,,,,,,,,,,,,,,,,,,,,,,,,,,,,057148,001,2024-04-30_18h12.35.535,ArchivoPrueba,2024.1.1,None,2024-04-30 18h12.47.803430 -0500,
None,25,yellow,,,,,0,12,12,12,,,,,,,,,,,,,,,,,,,,,,,,,,,,,,,,,81.2760191999987,,,,,,,,,,,,,,,81.24655749999874,81.2760191999987,82.2455528999999,,,,,,,,,,,,,,,,,,,,,,,,,,,,,,,,,,,,,,057148,001,2024-04-30_18h12.35.535,ArchivoPrueba,2024.1.1,None,2024-04-30 18h12.47.803430 -0500,
None,27,orange,,,,,0,13,13,13,,,,,,,,,,,,,,,,,,,,,,,,,,,,,,,,,82.27562930000022,,,,,,,,,,,,,,,82.24599179999859,82.27562930000022,83.248716099999,,,,,,,,,,,,,,,,,,,,,,,,,,,,,,,,,,,,,,057148,001,2024-04-30_18h12.35.535,ArchivoPrueba,2024.1.1,None,2024-04-30 18h12.47.803430 -0500,
None,29,brown,,,,,0,14,14,14,,,,,,,,,,,,,,,,,,,,,,,,,,,,,,,,,83.27405319999889,,,,,,,,,,,,,,,83.24969299999975,83.27405319999889,84.22975479999877,,,,,,,,,,,,,,,,,,,,,,,,,,,,,,,,,,,,,,057148,001,2024-04-30_18h12.35.535,ArchivoPrueba,2024.1.1,None,2024-04-30 18h12.47.803430 -0500,
None,31,purple,,,,,0,15,15,15,,,,,,,,,,,,,,,,,,,,,,,,,,,,,,,,,84.25660909999897,,,,,,,,,,,,,,,84.23034980000011,84.25660909999897,85.24618679999912,,,,,,,,,,,,,,,,,,,,,,,,,,,,,,,,,,,,,,057148,001,2024-04-30_18h12.35.535,ArchivoPrueba,2024.1.1,None,2024-04-30 18h12.47.803430 -0500,
None,33,green,,,,,0,16,16,16,,,,,,,,,,,,,,,,,,,,,,,,,,,,,,,,,85.27299539999876,,,,,,,,,,,,,,,85.2469745999988,85.27299539999876,86.24428579999949,,,,,,,,,,,,,,,,,,,,,,,,,,,,,,,,,,,,,,057148,001,2024-04-30_18h12.35.535,ArchivoPrueba,2024.1.1,None,2024-04-30 18h12.47.803430 -0500,
None,35,red,,,,,0,17,17,17,,,,,,,,,,,,,,,,,,,,,,,,,,,,,,,,,86.27182229999926,,,,,,,,,,,,,,,86.24493149999944,86.27182229999926,87.25773969999864,,,,,,,,,,,,,,,,,,,,,,,,,,,,,,,,,,,,,,057148,001,2024-04-30_18h12.35.535,ArchivoPrueba,2024.1.1,None,2024-04-30 18h12.47.803430 -0500,
None,37,white,,,,,0,18,18,18,,,,,,,,,,,,,,,,,,,,,,,,,,,,,,,,,87.28764529999899,,,,,,,,,,,,,,,87.25801169999977,87.28764529999899,88.25714829999924,,,,,,,,,,,,,,,,,,,,,,,,,,,,,,,,,,,,,,057148,001,2024-04-30_18h12.35.535,ArchivoPrueba,2024.1.1,None,2024-04-30 18h12.47.803430 -0500,
None,39,blue,,,,,0,19,19,19,,,,,,,,,,,,,,,,,,,,,,,,,,,,,,,,,88.28712259999884,,,,,,,,,,,,,,,88.25750270000026,88.28712259999884,89.24246139999923,,,,,,,,,,,,,,,,,,,,,,,,,,,,,,,,,,,,,,057148,001,2024-04-30_18h12.35.535,ArchivoPrueba,2024.1.1,None,2024-04-30 18h12.47.803430 -0500,
,,,,,,,,,,,,,,,,,,,,,,,,,,,,,,,,,,,,,,,,,,,,,,,,,,,,,,,,,,,,,,,,89.24257169999873,89.26954669999941,109.23941129999912,,,,,,,,,,,,,,,,,,,,,,,,,,,,,,,,057148,001,2024-04-30_18h12.35.535,ArchivoPrueba,2024.1.1,None,2024-04-30 18h12.47.803430 -0500,
¿Recuerda el recorrido que realiza desde su cama hasta la cocina de su residencia?,1,green,,,,,,,,,0,0,0,0,,,,,,,,,,,,,,,,,,,,,,,,,,,,,109.26836209999965,,,,,,,,,,,,,,,109.25284439999996,109.26836209999965,110.25557659999868,,,,,,,,,,,,,,,,,,,,,,,,,,,,,,,,,,,,,,057148,001,2024-04-30_18h12.35.535,ArchivoPrueba,2024.1.1,None,2024-04-30 18h12.47.803430 -0500,
¿Recuerda el trayecto que hace desde su casa hasta su lugar de trabajo?,3,red,,,,,,,,,0,1,1,1,,,,,,,,,,,,,,,,,,,,,,,,,,,,,110.28411609999966,,,,,,,,,,,,,,,110.25592909999978,110.28411609999966,111.25384789999953,,,,,,,,,,,,,,,,,,,,,,,,,,,,,,,,,,,,,,057148,001,2024-04-30_18h12.35.535,ArchivoPrueba,2024.1.1,None,2024-04-30 18h12.47.803430 -0500,
¿Recuerda  algún inconveniente que ha  experimentado en el camino de su residencia a su lugar de trabajo?,5,white,,,,,,,,,0,2,2,2,,,,,,,,,,,,,,,,,,,,,,,,,,,,,111.28326329999982,,,,,,,,,,,,,,,111.25416299999961,111.28326329999982,113.09745730000031,,,,,,,,,,,,,,,,,,,,,,,,,,,,,,,,,,,,,,057148,001,2024-04-30_18h12.35.535,ArchivoPrueba,2024.1.1,None,2024-04-30 18h12.47.803430 -0500,
¿Recuerda si hay algún lugar u objeto en su camino hacia el trabajo que le llame la atención?,7,blue,,,,,,,,,0,3,3,3,,,,,,,,,,,,,,,,,,,,,,,,,,,,,113.11705799999982,,,,,,,,,,,,,,,113.09779030000027,113.11705799999982,113.25185369999963,,,,,,,,,,,,,,,,,,,,,,,,,,,,,,,,,,,,,,057148,001,2024-04-30_18h12.35.535,ArchivoPrueba,2024.1.1,None,2024-04-30 18h12.47.803430 -0500,
" ¿Recuerda el recorrido desde la entrada de su lugar de trabajo hasta su oficina, donde realiza sus funciones?",9,yellow,,,,,,,,,0,4,4,4,,,,,,,,,,,,,,,,,,,,,,,,,,,,,113.28146839999863,,,,,,,,,,,,,,,113.2521342,113.28146839999863,114.23412660000031,,,,,,,,,,,,,,,,,,,,,,,,,,,,,,,,,,,,,,057148,001,2024-04-30_18h12.35.535,ArchivoPrueba,2024.1.1,None,2024-04-30 18h12.47.803430 -0500,
¿Recuerda alguna actividad que realice durante los viajes de regreso a casa desde el trabajo para relajarse?,11,orange,,,,,,,,,0,5,5,5,,,,,,,,,,,,,,,,,,,,,,,,,,,,,114.26394710000022,,,,,,,,,,,,,,,114.23438749999877,114.26394710000022,115.25001329999941,,,,,,,,,,,,,,,,,,,,,,,,,,,,,,,,,,,,,,057148,001,2024-04-30_18h12.35.535,ArchivoPrueba,2024.1.1,None,2024-04-30 18h12.47.803430 -0500,
¿Recuerda el trayecto que realiza desde su casa hasta el lugar donde realiza sus compras?,13,brown,,,,,,,,,0,6,6,6,,,,,,,,,,,,,,,,,,,,,,,,,,,,,115.27982949999932,,,,,,,,,,,,,,,115.2502958999994,115.27982949999932,116.2347078999992,,,,,,,,,,,,,,,,,,,,,,,,,,,,,,,,,,,,,,057148,001,2024-04-30_18h12.35.535,ArchivoPrueba,2024.1.1,None,2024-04-30 18h12.47.803430 -0500,
¿Recuerda alguna situación divertida o interesante que haya experimentado durante el recorrido hacia el lugar de compras?,15,purple,,,,,,,,,0,7,7,7,,,,,,,,,,,,,,,,,,,,,,,,,,,,,116.26152889999867,,,,,,,,,,,,,,,116.23523550000027,116.26152889999867,117.2489074999994,,,,,,,,,,,,,,,,,,,,,,,,,,,,,,,,,,,,,,057148,001,2024-04-30_18h12.35.535,ArchivoPrueba,2024.1.1,None,2024-04-30 18h12.47.803430 -0500,
 ¿Recuerda qué es lo primero que ve al llegar al lugar donde realiza sus compras?,17,green,,,,,,,,,0,8,8,8,,,,,,,,,,,,,,,,,,,,,,,,,,,,,117.27793209999982,,,,,,,,,,,,,,,117.24917189999906,117.27793209999982,118.23282339999969,,,,,,,,,,,,,,,,,,,,,,,,,,,,,,,,,,,,,,057148,001,2024-04-30_18h12.35.535,ArchivoPrueba,2024.1.1,None,2024-04-30 18h12.47.803430 -0500,
¿Recuerda el recorrido desde su residencia hasta el centro de resonancia magnética?,19,red,,,,,,,,,0,9,9,9,,,,,,,,,,,,,,,,,,,,,,,,,,,,,118.26032569999916,,,,,,,,,,,,,,,118.23319059999994,118.26032569999916,119.22993039999892,,,,,,,,,,,,,,,,,,,,,,,,,,,,,,,,,,,,,,057148,001,2024-04-30_18h12.35.535,ArchivoPrueba,2024.1.1,None,2024-04-30 18h12.47.803430 -0500,
None,21,white,,,,,,,,,0,10,10,10,,,,,,,,,,,,,,,,,,,,,,,,,,,,,119.25920369999949,,,,,,,,,,,,,,,119.23026649999883,119.25920369999949,120.22932799999944,,,,,,,,,,,,,,,,,,,,,,,,,,,,,,,,,,,,,,057148,001,2024-04-30_18h12.35.535,ArchivoPrueba,2024.1.1,None,2024-04-30 18h12.47.803430 -0500,
None,23,blue,,,,,,,,,0,11,11,11,,,,,,,,,,,,,,,,,,,,,,,,,,,,,120.25874399999884,,,,,,,,,,,,,,,120.22962919999918,120.25874399999884,121.22991840000032,,,,,,,,,,,,,,,,,,,,,,,,,,,,,,,,,,,,,,057148,001,2024-04-30_18h12.35.535,ArchivoPrueba,2024.1.1,None,2024-04-30 18h12.47.803430 -0500,
None,25,yellow,,,,,,,,,0,12,12,12,,,,,,,,,,,,,,,,,,,,,,,,,,,,,121.25790609999967,,,,,,,,,,,,,,,121.2302037999998,121.25790609999967,122.2296065999999,,,,,,,,,,,,,,,,,,,,,,,,,,,,,,,,,,,,,,057148,001,2024-04-30_18h12.35.535,ArchivoPrueba,2024.1.1,None,2024-04-30 18h12.47.803430 -0500,
None,27,orange,,,,,,,,,0,13,13,13,,,,,,,,,,,,,,,,,,,,,,,,,,,,,122.25680479999937,,,,,,,,,,,,,,,122.23021700000027,122.25680479999937,123.22852769999918,,,,,,,,,,,,,,,,,,,,,,,,,,,,,,,,,,,,,,057148,001,2024-04-30_18h12.35.535,ArchivoPrueba,2024.1.1,None,2024-04-30 18h12.47.803430 -0500,
None,29,brown,,,,,,,,,0,14,14,14,,,,,,,,,,,,,,,,,,,,,,,,,,,,,123.256108399999,,,,,,,,,,,,,,,123.22892369999863,123.256108399999,124.24430550000034,,,,,,,,,,,,,,,,,,,,,,,,,,,,,,,,,,,,,,057148,001,2024-04-30_18h12.35.535,ArchivoPrueba,2024.1.1,None,2024-04-30 18h12.47.803430 -0500,
None,31,purple,,,,,,,,,0,15,15,15,,,,,,,,,,,,,,,,,,,,,,,,,,,,,124.27194869999948,,,,,,,,,,,,,,,124.24489569999969,124.27194869999948,125.2434745999999,,,,,,,,,,,,,,,,,,,,,,,,,,,,,,,,,,,,,,057148,001,2024-04-30_18h12.35.535,ArchivoPrueba,2024.1.1,None,2024-04-30 18h12.47.803430 -0500,
None,33,green,,,,,,,,,0,16,16,16,,,,,,,,,,,,,,,,,,,,,,,,,,,,,125.27103929999976,,,,,,,,,,,,,,,125.24395369999911,125.27103929999976,126.25681950000035,,,,,,,,,,,,,,,,,,,,,,,,,,,,,,,,,,,,,,057148,001,2024-04-30_18h12.35.535,ArchivoPrueba,2024.1.1,None,2024-04-30 18h12.47.803430 -0500,
None,35,red,,,,,,,,,0,17,17,17,,,,,,,,,,,,,,,,,,,,,,,,,,,,,126.28676619999897,,,,,,,,,,,,,,,126.25709009999991,126.28676619999897,127.23983399999997,,,,,,,,,,,,,,,,,,,,,,,,,,,,,,,,,,,,,,057148,001,2024-04-30_18h12.35.535,ArchivoPrueba,2024.1.1,None,2024-04-30 18h12.47.803430 -0500,
None,37,white,,,,,,,,,0,18,18,18,,,,,,,,,,,,,,,,,,,,,,,,,,,,,127.26926829999866,,,,,,,,,,,,,,,127.2402191000001,127.26926829999866,128.24102499999935,,,,,,,,,,,,,,,,,,,,,,,,,,,,,,,,,,,,,,057148,001,2024-04-30_18h12.35.535,ArchivoPrueba,2024.1.1,None,2024-04-30 18h12.47.803430 -0500,
None,39,blue,,,,,,,,,0,19,19,19,,,,,,,,,,,,,,,,,,,,,,,,,,,,,128.26907539999956,,,,,,,,,,,,,,,128.24158239999997,128.26907539999956,129.24010309999903,,,,,,,,,,,,,,,,,,,,,,,,,,,,,,,,,,,,,,057148,001,2024-04-30_18h12.35.535,ArchivoPrueba,2024.1.1,None,2024-04-30 18h12.47.803430 -0500,
,,,,,,,,,,,,,,,,,,,,,,,,,,,,,,,,,,,,,,,,,,,,,,,,,,,,,,,,,,,,,,,,,,,129.2401682999989,129.26797389999956,149.23942019999959,,,,,,,,,,,,,,,,,,,,,,,,,,,,,057148,001,2024-04-30_18h12.35.535,ArchivoPrueba,2024.1.1,None,2024-04-30 18h12.47.803430 -0500,
¿Recuerda el recorrido que realiza desde su cama hasta la cocina de su residencia?,1,green,,,,,,,,,,,,,0,0,0,0,,,,,,,,,,,,,,,,,,,,,,,,,149.28314539999883,,,,,,,,,,,,,,,149.2518698999993,149.28314539999883,150.25285819999954,,,,,,,,,,,,,,,,,,,,,,,,,,,,,,,,,,,,,,057148,001,2024-04-30_18h12.35.535,ArchivoPrueba,2024.1.1,None,2024-04-30 18h12.47.803430 -0500,
¿Recuerda el trayecto que hace desde su casa hasta su lugar de trabajo?,3,red,,,,,,,,,,,,,0,1,1,1,,,,,,,,,,,,,,,,,,,,,,,,,150.28266409999924,,,,,,,,,,,,,,,150.25317489999907,150.28266409999924,151.23756890000004,,,,,,,,,,,,,,,,,,,,,,,,,,,,,,,,,,,,,,057148,001,2024-04-30_18h12.35.535,ArchivoPrueba,2024.1.1,None,2024-04-30 18h12.47.803430 -0500,
¿Recuerda  algún inconveniente que ha  experimentado en el camino de su residencia a su lugar de trabajo?,5,white,,,,,,,,,,,,,0,2,2,2,,,,,,,,,,,,,,,,,,,,,,,,,151.2650668999995,,,,,,,,,,,,,,,151.23810649999905,151.2650668999995,152.2514386999992,,,,,,,,,,,,,,,,,,,,,,,,,,,,,,,,,,,,,,057148,001,2024-04-30_18h12.35.535,ArchivoPrueba,2024.1.1,None,2024-04-30 18h12.47.803430 -0500,
¿Recuerda si hay algún lugar u objeto en su camino hacia el trabajo que le llame la atención?,7,blue,,,,,,,,,,,,,0,3,3,3,,,,,,,,,,,,,,,,,,,,,,,,,152.28085309999915,,,,,,,,,,,,,,,152.25172120000025,152.28085309999915,153.2503476999991,,,,,,,,,,,,,,,,,,,,,,,,,,,,,,,,,,,,,,057148,001,2024-04-30_18h12.35.535,ArchivoPrueba,2024.1.1,None,2024-04-30 18h12.47.803430 -0500,
" ¿Recuerda el recorrido desde la entrada de su lugar de trabajo hasta su oficina, donde realiza sus funciones?",9,yellow,,,,,,,,,,,,,0,4,4,4,,,,,,,,,,,,,,,,,,,,,,,,,153.27999470000032,,,,,,,,,,,,,,,153.25061169999935,153.27999470000032,154.23267549999946,,,,,,,,,,,,,,,,,,,,,,,,,,,,,,,,,,,,,,057148,001,2024-04-30_18h12.35.535,ArchivoPrueba,2024.1.1,None,2024-04-30 18h12.47.803430 -0500,
¿Recuerda alguna actividad que realice durante los viajes de regreso a casa desde el trabajo para relajarse?,11,orange,,,,,,,,,,,,,0,5,5,5,,,,,,,,,,,,,,,,,,,,,,,,,154.26236599999902,,,,,,,,,,,,,,,154.23294469999928,154.26236599999902,155.23187959999996,,,,,,,,,,,,,,,,,,,,,,,,,,,,,,,,,,,,,,057148,001,2024-04-30_18h12.35.535,ArchivoPrueba,2024.1.1,None,2024-04-30 18h12.47.803430 -0500,
¿Recuerda el trayecto que realiza desde su casa hasta el lugar donde realiza sus compras?,13,brown,,,,,,,,,,,,,0,6,6,6,,,,,,,,,,,,,,,,,,,,,,,,,155.26172309999856,,,,,,,,,,,,,,,155.23214109999935,155.26172309999856,156.23130899999887,,,,,,,,,,,,,,,,,,,,,,,,,,,,,,,,,,,,,,057148,001,2024-04-30_18h12.35.535,ArchivoPrueba,2024.1.1,None,2024-04-30 18h12.47.803430 -0500,
¿Recuerda alguna situación divertida o interesante que haya experimentado durante el recorrido hacia el lugar de compras?,15,purple,,,,,,,,,,,,,0,7,7,7,,,,,,,,,,,,,,,,,,,,,,,,,156.26080739999998,,,,,,,,,,,,,,,156.2316613999992,156.26080739999998,157.24766239999917,,,,,,,,,,,,,,,,,,,,,,,,,,,,,,,,,,,,,,057148,001,2024-04-30_18h12.35.535,ArchivoPrueba,2024.1.1,None,2024-04-30 18h12.47.803430 -0500,
 ¿Recuerda qué es lo primero que ve al llegar al lugar donde realiza sus compras?,17,green,,,,,,,,,,,,,0,8,8,8,,,,,,,,,,,,,,,,,,,,,,,,,157.27619810000033,,,,,,,,,,,,,,,157.24793130000035,157.27619810000033,158.22912079999878,,,,,,,,,,,,,,,,,,,,,,,,,,,,,,,,,,,,,,057148,001,2024-04-30_18h12.35.535,ArchivoPrueba,2024.1.1,None,2024-04-30 18h12.47.803430 -0500,
¿Recuerda el recorrido desde su residencia hasta el centro de resonancia magnética?,19,red,,,,,,,,,,,,,0,9,9,9,,,,,,,,,,,,,,,,,,,,,,,,,158.25862059999963,,,,,,,,,,,,,,,158.22938339999928,158.25862059999963,159.24793750000026,,,,,,,,,,,,,,,,,,,,,,,,,,,,,,,,,,,,,,057148,001,2024-04-30_18h12.35.535,ArchivoPrueba,2024.1.1,None,2024-04-30 18h12.47.803430 -0500,
None,21,white,,,,,,,,,,,,,0,10,10,10,,,,,,,,,,,,,,,,,,,,,,,,,159.27489109999988,,,,,,,,,,,,,,,159.2485746000002,159.27489109999988,160.24659450000036,,,,,,,,,,,,,,,,,,,,,,,,,,,,,,,,,,,,,,057148,001,2024-04-30_18h12.35.535,ArchivoPrueba,2024.1.1,None,2024-04-30 18h12.47.803430 -0500,
None,23,blue,,,,,,,,,,,,,0,11,11,11,,,,,,,,,,,,,,,,,,,,,,,,,160.2731301999993,,,,,,,,,,,,,,,160.24715959999958,160.2731301999993,161.2460450999988,,,,,,,,,,,,,,,,,,,,,,,,,,,,,,,,,,,,,,057148,001,2024-04-30_18h12.35.535,ArchivoPrueba,2024.1.1,None,2024-04-30 18h12.47.803430 -0500,
None,25,yellow,,,,,,,,,,,,,0,12,12,12,,,,,,,,,,,,,,,,,,,,,,,,,161.27289759999985,,,,,,,,,,,,,,,161.24660409999888,161.27289759999985,162.2444317999998,,,,,,,,,,,,,,,,,,,,,,,,,,,,,,,,,,,,,,057148,001,2024-04-30_18h12.35.535,ArchivoPrueba,2024.1.1,None,2024-04-30 18h12.47.803430 -0500,
None,27,orange,,,,,,,,,,,,,0,13,13,13,,,,,,,,,,,,,,,,,,,,,,,,,162.27214040000035,,,,,,,,,,,,,,,162.2447634,162.27214040000035,163.2433803999993,,,,,,,,,,,,,,,,,,,,,,,,,,,,,,,,,,,,,,057148,001,2024-04-30_18h12.35.535,ArchivoPrueba,2024.1.1,None,2024-04-30 18h12.47.803430 -0500,
None,29,brown,,,,,,,,,,,,,0,14,14,14,,,,,,,,,,,,,,,,,,,,,,,,,163.27055109999856,,,,,,,,,,,,,,,163.2440093999994,163.27055109999856,164.24260759999925,,,,,,,,,,,,,,,,,,,,,,,,,,,,,,,,,,,,,,057148,001,2024-04-30_18h12.35.535,ArchivoPrueba,2024.1.1,None,2024-04-30 18h12.47.803430 -0500,
None,31,purple,,,,,,,,,,,,,0,15,15,15,,,,,,,,,,,,,,,,,,,,,,,,,164.27031749999878,,,,,,,,,,,,,,,164.24291379999886,164.27031749999878,165.24187659999916,,,,,,,,,,,,,,,,,,,,,,,,,,,,,,,,,,,,,,057148,001,2024-04-30_18h12.35.535,ArchivoPrueba,2024.1.1,None,2024-04-30 18h12.47.803430 -0500,
None,33,green,,,,,,,,,,,,,0,16,16,16,,,,,,,,,,,,,,,,,,,,,,,,,165.26929369999925,,,,,,,,,,,,,,,165.24221579999903,165.26929369999925,166.24107339999864,,,,,,,,,,,,,,,,,,,,,,,,,,,,,,,,,,,,,,057148,001,2024-04-30_18h12.35.535,ArchivoPrueba,2024.1.1,None,2024-04-30 18h12.47.803430 -0500,
None,35,red,,,,,,,,,,,,,0,17,17,17,,,,,,,,,,,,,,,,,,,,,,,,,166.26792240000032,,,,,,,,,,,,,,,166.24209410000003,166.26792240000032,167.24062380000032,,,,,,,,,,,,,,,,,,,,,,,,,,,,,,,,,,,,,,057148,001,2024-04-30_18h12.35.535,ArchivoPrueba,2024.1.1,None,2024-04-30 18h12.47.803430 -0500,
None,37,white,,,,,,,,,,,,,0,18,18,18,,,,,,,,,,,,,,,,,,,,,,,,,167.2677036999994,,,,,,,,,,,,,,,167.2412308999992,167.2677036999994,168.2391446999991,,,,,,,,,,,,,,,,,,,,,,,,,,,,,,,,,,,,,,057148,001,2024-04-30_18h12.35.535,ArchivoPrueba,2024.1.1,None,2024-04-30 18h12.47.803430 -0500,
None,39,blue,,,,,,,,,,,,,0,19,19,19,,,,,,,,,,,,,,,,,,,,,,,,,168.26670459999877,,,,,,,,,,,,,,,168.23943279999912,168.26670459999877,169.23622449999857,,,,,,,,,,,,,,,,,,,,,,,,,,,,,,,,,,,,,,057148,001,2024-04-30_18h12.35.535,ArchivoPrueba,2024.1.1,None,2024-04-30 18h12.47.803430 -0500,
,,,,,,,,,,,,,,,,,,,,,,,,,,,,,,,,,,,,,,,,,,,,,,,,,,,,,,,,,,,,,,,,,,,,,,169.23629859999892,169.25202939999872,189.23504089999915,,,,,,,,,,,,,,,,,,,,,,,,,,057148,001,2024-04-30_18h12.35.535,ArchivoPrueba,2024.1.1,None,2024-04-30 18h12.47.803430 -0500,
¿Recuerda el recorrido que realiza desde su cama hasta la cocina de su residencia?,1,green,,,,,,,,,,,,,,,,,0,0,0,0,,,,,,,,,,,,,,,,,,,,,189.2646724999995,,,,,,,,,,,,,,,189.24752889999945,189.2646724999995,190.2507588999997,,,,,,,,,,,,,,,,,,,,,,,,,,,,,,,,,,,,,,057148,001,2024-04-30_18h12.35.535,ArchivoPrueba,2024.1.1,None,2024-04-30 18h12.47.803430 -0500,
¿Recuerda el trayecto que hace desde su casa hasta su lugar de trabajo?,3,red,,,,,,,,,,,,,,,,,0,1,1,1,,,,,,,,,,,,,,,,,,,,,190.28042789999927,,,,,,,,,,,,,,,190.25108069999987,190.28042789999927,191.25015559999883,,,,,,,,,,,,,,,,,,,,,,,,,,,,,,,,,,,,,,057148,001,2024-04-30_18h12.35.535,ArchivoPrueba,2024.1.1,None,2024-04-30 18h12.47.803430 -0500,
¿Recuerda  algún inconveniente que ha  experimentado en el camino de su residencia a su lugar de trabajo?,5,white,,,,,,,,,,,,,,,,,0,2,2,2,,,,,,,,,,,,,,,,,,,,,191.27970689999893,,,,,,,,,,,,,,,191.25044999999955,191.27970689999893,192.253691599999,,,,,,,,,,,,,,,,,,,,,,,,,,,,,,,,,,,,,,057148,001,2024-04-30_18h12.35.535,ArchivoPrueba,2024.1.1,None,2024-04-30 18h12.47.803430 -0500,
¿Recuerda si hay algún lugar u objeto en su camino hacia el trabajo que le llame la atención?,7,blue,,,,,,,,,,,,,,,,,0,3,3,3,,,,,,,,,,,,,,,,,,,,,192.27873199999885,,,,,,,,,,,,,,,192.2544769999986,192.27873199999885,193.23111739999877,,,,,,,,,,,,,,,,,,,,,,,,,,,,,,,,,,,,,,057148,001,2024-04-30_18h12.35.535,ArchivoPrueba,2024.1.1,None,2024-04-30 18h12.47.803430 -0500,
" ¿Recuerda el recorrido desde la entrada de su lugar de trabajo hasta su oficina, donde realiza sus funciones?",9,yellow,,,,,,,,,,,,,,,,,0,4,4,4,,,,,,,,,,,,,,,,,,,,,193.2616823999997,,,,,,,,,,,,,,,193.2314585999993,193.2616823999997,194.24729300000035,,,,,,,,,,,,,,,,,,,,,,,,,,,,,,,,,,,,,,057148,001,2024-04-30_18h12.35.535,ArchivoPrueba,2024.1.1,None,2024-04-30 18h12.47.803430 -0500,
¿Recuerda alguna actividad que realice durante los viajes de regreso a casa desde el trabajo para relajarse?,11,orange,,,,,,,,,,,,,,,,,0,5,5,5,,,,,,,,,,,,,,,,,,,,,194.27678259999993,,,,,,,,,,,,,,,194.24761279999984,194.27678259999993,195.22985599999993,,,,,,,,,,,,,,,,,,,,,,,,,,,,,,,,,,,,,,057148,001,2024-04-30_18h12.35.535,ArchivoPrueba,2024.1.1,None,2024-04-30 18h12.47.803430 -0500,
¿Recuerda el trayecto que realiza desde su casa hasta el lugar donde realiza sus compras?,13,brown,,,,,,,,,,,,,,,,,0,6,6,6,,,,,,,,,,,,,,,,,,,,,195.25998549999895,,,,,,,,,,,,,,,195.23015229999874,195.25998549999895,196.22941309999987,,,,,,,,,,,,,,,,,,,,,,,,,,,,,,,,,,,,,,057148,001,2024-04-30_18h12.35.535,ArchivoPrueba,2024.1.1,None,2024-04-30 18h12.47.803430 -0500,
¿Recuerda alguna situación divertida o interesante que haya experimentado durante el recorrido hacia el lugar de compras?,15,purple,,,,,,,,,,,,,,,,,0,7,7,7,,,,,,,,,,,,,,,,,,,,,196.25903420000031,,,,,,,,,,,,,,,196.2297579999995,196.25903420000031,197.22985789999984,,,,,,,,,,,,,,,,,,,,,,,,,,,,,,,,,,,,,,057148,001,2024-04-30_18h12.35.535,ArchivoPrueba,2024.1.1,None,2024-04-30 18h12.47.803430 -0500,
 ¿Recuerda qué es lo primero que ve al llegar al lugar donde realiza sus compras?,17,green,,,,,,,,,,,,,,,,,0,8,8,8,,,,,,,,,,,,,,,,,,,,,197.25833199999943,,,,,,,,,,,,,,,197.23023300000023,197.25833199999943,198.2457300999995,,,,,,,,,,,,,,,,,,,,,,,,,,,,,,,,,,,,,,057148,001,2024-04-30_18h12.35.535,ArchivoPrueba,2024.1.1,None,2024-04-30 18h12.47.803430 -0500,
¿Recuerda el recorrido desde su residencia hasta el centro de resonancia magnética?,19,red,,,,,,,,,,,,,,,,,0,9,9,9,,,,,,,,,,,,,,,,,,,,,198.2733935999986,,,,,,,,,,,,,,,198.2459947999996,198.2733935999986,199.2448573999991,,,,,,,,,,,,,,,,,,,,,,,,,,,,,,,,,,,,,,057148,001,2024-04-30_18h12.35.535,ArchivoPrueba,2024.1.1,None,2024-04-30 18h12.47.803430 -0500,
None,21,white,,,,,,,,,,,,,,,,,0,10,10,10,,,,,,,,,,,,,,,,,,,,,199.2723952999986,,,,,,,,,,,,,,,199.24512359999972,199.2723952999986,200.25872809999964,,,,,,,,,,,,,,,,,,,,,,,,,,,,,,,,,,,,,,057148,001,2024-04-30_18h12.35.535,ArchivoPrueba,2024.1.1,None,2024-04-30 18h12.47.803430 -0500,
None,23,blue,,,,,,,,,,,,,,,,,0,11,11,11,,,,,,,,,,,,,,,,,,,,,200.28846469999917,,,,,,,,,,,,,,,200.25901049999993,200.28846469999917,201.24313090000032,,,,,,,,,,,,,,,,,,,,,,,,,,,,,,,,,,,,,,057148,001,2024-04-30_18h12.35.535,ArchivoPrueba,2024.1.1,None,2024-04-30 18h12.47.803430 -0500,
None,25,yellow,,,,,,,,,,,,,,,,,0,12,12,12,,,,,,,,,,,,,,,,,,,,,201.2709758000001,,,,,,,,,,,,,,,201.24349319999965,201.2709758000001,202.25713619999988,,,,,,,,,,,,,,,,,,,,,,,,,,,,,,,,,,,,,,057148,001,2024-04-30_18h12.35.535,ArchivoPrueba,2024.1.1,None,2024-04-30 18h12.47.803430 -0500,
None,27,orange,,,,,,,,,,,,,,,,,0,13,13,13,,,,,,,,,,,,,,,,,,,,,202.28668089999883,,,,,,,,,,,,,,,202.25746619999882,202.28668089999883,203.23953319999964,,,,,,,,,,,,,,,,,,,,,,,,,,,,,,,,,,,,,,057148,001,2024-04-30_18h12.35.535,ArchivoPrueba,2024.1.1,None,2024-04-30 18h12.47.803430 -0500,
None,29,brown,,,,,,,,,,,,,,,,,0,14,14,14,,,,,,,,,,,,,,,,,,,,,203.26933579999968,,,,,,,,,,,,,,,203.24000410000008,203.26933579999968,204.23887139999897,,,,,,,,,,,,,,,,,,,,,,,,,,,,,,,,,,,,,,057148,001,2024-04-30_18h12.35.535,ArchivoPrueba,2024.1.1,None,2024-04-30 18h12.47.803430 -0500,
None,31,purple,,,,,,,,,,,,,,,,,0,15,15,15,,,,,,,,,,,,,,,,,,,,,204.26847160000034,,,,,,,,,,,,,,,204.2391676999996,204.26847160000034,205.23771979999947,,,,,,,,,,,,,,,,,,,,,,,,,,,,,,,,,,,,,,057148,001,2024-04-30_18h12.35.535,ArchivoPrueba,2024.1.1,None,2024-04-30 18h12.47.803430 -0500,
None,33,green,,,,,,,,,,,,,,,,,0,16,16,16,,,,,,,,,,,,,,,,,,,,,205.26725459999943,,,,,,,,,,,,,,,205.23800479999954,205.26725459999943,206.2388479000001,,,,,,,,,,,,,,,,,,,,,,,,,,,,,,,,,,,,,,057148,001,2024-04-30_18h12.35.535,ArchivoPrueba,2024.1.1,None,2024-04-30 18h12.47.803430 -0500,
None,35,red,,,,,,,,,,,,,,,,,0,17,17,17,,,,,,,,,,,,,,,,,,,,,206.26679589999912,,,,,,,,,,,,,,,206.2391177999998,206.26679589999912,207.23569609999868,,,,,,,,,,,,,,,,,,,,,,,,,,,,,,,,,,,,,,057148,001,2024-04-30_18h12.35.535,ArchivoPrueba,2024.1.1,None,2024-04-30 18h12.47.803430 -0500,
None,37,white,,,,,,,,,,,,,,,,,0,18,18,18,,,,,,,,,,,,,,,,,,,,,207.26571159999912,,,,,,,,,,,,,,,207.23595699999896,207.26571159999912,208.23527879999892,,,,,,,,,,,,,,,,,,,,,,,,,,,,,,,,,,,,,,057148,001,2024-04-30_18h12.35.535,ArchivoPrueba,2024.1.1,None,2024-04-30 18h12.47.803430 -0500,
None,39,blue,,,,,,,,,,,,,,,,,0,19,19,19,,,,,,,,,,,,,,,,,,,,,208.26491290000013,,,,,,,,,,,,,,,208.23559029999888,208.26491290000013,209.2506715999989,,,,,,,,,,,,,,,,,,,,,,,,,,,,,,,,,,,,,,057148,001,2024-04-30_18h12.35.535,ArchivoPrueba,2024.1.1,None,2024-04-30 18h12.47.803430 -0500,
,,,,,,,,,,,,,,,,,,,,,,,,,,,,,,,,,,,,,,,,,,,,,,,,,,,,,,,,,,,,,,,,,,,,,,,,,209.25072679999903,209.26629179999873,229.2331825000001,,,,,,,,,,,,,,,,,,,,,,,057148,001,2024-04-30_18h12.35.535,ArchivoPrueba,2024.1.1,None,2024-04-30 18h12.47.803430 -0500,
¿Recuerda el recorrido que realiza desde su cama hasta la cocina de su residencia?,1,green,,,,,,,,,,,,,,,,,,,,,0,0,0,0,,,,,,,,,,,,,,,,,229.2634251999989,,,,,,,,,,,,,,,229.24554249999892,229.2634251999989,230.23237009999866,,,,,,,,,,,,,,,,,,,,,,,,,,,,,,,,,,,,,,057148,001,2024-04-30_18h12.35.535,ArchivoPrueba,2024.1.1,None,2024-04-30 18h12.47.803430 -0500,
¿Recuerda el trayecto que hace desde su casa hasta su lugar de trabajo?,3,red,,,,,,,,,,,,,,,,,,,,,0,1,1,1,,,,,,,,,,,,,,,,,230.26219499999934,,,,,,,,,,,,,,,230.23267329999908,230.26219499999934,231.24908340000002,,,,,,,,,,,,,,,,,,,,,,,,,,,,,,,,,,,,,,057148,001,2024-04-30_18h12.35.535,ArchivoPrueba,2024.1.1,None,2024-04-30 18h12.47.803430 -0500,
¿Recuerda  algún inconveniente que ha  experimentado en el camino de su residencia a su lugar de trabajo?,5,white,,,,,,,,,,,,,,,,,,,,,0,2,2,2,,,,,,,,,,,,,,,,,231.27796539999872,,,,,,,,,,,,,,,231.2493734999989,231.27796539999872,232.23107939999863,,,,,,,,,,,,,,,,,,,,,,,,,,,,,,,,,,,,,,057148,001,2024-04-30_18h12.35.535,ArchivoPrueba,2024.1.1,None,2024-04-30 18h12.47.803430 -0500,
¿Recuerda si hay algún lugar u objeto en su camino hacia el trabajo que le llame la atención?,7,blue,,,,,,,,,,,,,,,,,,,,,0,3,3,3,,,,,,,,,,,,,,,,,232.2608677999997,,,,,,,,,,,,,,,232.23135939999884,232.2608677999997,233.24653799999942,,,,,,,,,,,,,,,,,,,,,,,,,,,,,,,,,,,,,,057148,001,2024-04-30_18h12.35.535,ArchivoPrueba,2024.1.1,None,2024-04-30 18h12.47.803430 -0500,
" ¿Recuerda el recorrido desde la entrada de su lugar de trabajo hasta su oficina, donde realiza sus funciones?",9,yellow,,,,,,,,,,,,,,,,,,,,,0,4,4,4,,,,,,,,,,,,,,,,,233.27632359999916,,,,,,,,,,,,,,,233.2469076999987,233.27632359999916,234.22925140000007,,,,,,,,,,,,,,,,,,,,,,,,,,,,,,,,,,,,,,057148,001,2024-04-30_18h12.35.535,ArchivoPrueba,2024.1.1,None,2024-04-30 18h12.47.803430 -0500,
¿Recuerda alguna actividad que realice durante los viajes de regreso a casa desde el trabajo para relajarse?,11,orange,,,,,,,,,,,,,,,,,,,,,0,5,5,5,,,,,,,,,,,,,,,,,234.25931519999904,,,,,,,,,,,,,,,234.22960129999956,234.25931519999904,235.2280479000001,,,,,,,,,,,,,,,,,,,,,,,,,,,,,,,,,,,,,,057148,001,2024-04-30_18h12.35.535,ArchivoPrueba,2024.1.1,None,2024-04-30 18h12.47.803430 -0500,
¿Recuerda el trayecto que realiza desde su casa hasta el lugar donde realiza sus compras?,13,brown,,,,,,,,,,,,,,,,,,,,,0,6,6,6,,,,,,,,,,,,,,,,,235.2582483999995,,,,,,,,,,,,,,,235.22839380000005,235.2582483999995,236.24403559999882,,,,,,,,,,,,,,,,,,,,,,,,,,,,,,,,,,,,,,057148,001,2024-04-30_18h12.35.535,ArchivoPrueba,2024.1.1,None,2024-04-30 18h12.47.803430 -0500,
¿Recuerda alguna situación divertida o interesante que haya experimentado durante el recorrido hacia el lugar de compras?,15,purple,,,,,,,,,,,,,,,,,,,,,0,7,7,7,,,,,,,,,,,,,,,,,236.27355759999955,,,,,,,,,,,,,,,236.24443149999934,236.27355759999955,237.24519200000032,,,,,,,,,,,,,,,,,,,,,,,,,,,,,,,,,,,,,,057148,001,2024-04-30_18h12.35.535,ArchivoPrueba,2024.1.1,None,2024-04-30 18h12.47.803430 -0500,
 ¿Recuerda qué es lo primero que ve al llegar al lugar donde realiza sus compras?,17,green,,,,,,,,,,,,,,,,,,,,,0,8,8,8,,,,,,,,,,,,,,,,,237.27263029999995,,,,,,,,,,,,,,,237.2455274999993,237.27263029999995,238.2425199999998,,,,,,,,,,,,,,,,,,,,,,,,,,,,,,,,,,,,,,057148,001,2024-04-30_18h12.35.535,ArchivoPrueba,2024.1.1,None,2024-04-30 18h12.47.803430 -0500,
¿Recuerda el recorrido desde su residencia hasta el centro de resonancia magnética?,19,red,,,,,,,,,,,,,,,,,,,,,0,9,9,9,,,,,,,,,,,,,,,,,238.27178730000014,,,,,,,,,,,,,,,238.24283389999982,238.27178730000014,239.24392409999928,,,,,,,,,,,,,,,,,,,,,,,,,,,,,,,,,,,,,,057148,001,2024-04-30_18h12.35.535,ArchivoPrueba,2024.1.1,None,2024-04-30 18h12.47.803430 -0500,
None,21,white,,,,,,,,,,,,,,,,,,,,,0,10,10,10,,,,,,,,,,,,,,,,,239.27087380000012,,,,,,,,,,,,,,,239.24421540000003,239.27087380000012,240.25934929999858,,,,,,,,,,,,,,,,,,,,,,,,,,,,,,,,,,,,,,057148,001,2024-04-30_18h12.35.535,ArchivoPrueba,2024.1.1,None,2024-04-30 18h12.47.803430 -0500,
None,23,blue,,,,,,,,,,,,,,,,,,,,,0,11,11,11,,,,,,,,,,,,,,,,,240.28617080000004,,,,,,,,,,,,,,,240.2597982999996,240.28617080000004,241.25789900000018,,,,,,,,,,,,,,,,,,,,,,,,,,,,,,,,,,,,,,057148,001,2024-04-30_18h12.35.535,ArchivoPrueba,2024.1.1,None,2024-04-30 18h12.47.803430 -0500,
None,25,yellow,,,,,,,,,,,,,,,,,,,,,0,12,12,12,,,,,,,,,,,,,,,,,241.28534629999922,,,,,,,,,,,,,,,241.25841620000028,241.28534629999922,242.2577967999987,,,,,,,,,,,,,,,,,,,,,,,,,,,,,,,,,,,,,,057148,001,2024-04-30_18h12.35.535,ArchivoPrueba,2024.1.1,None,2024-04-30 18h12.47.803430 -0500,
None,27,orange,,,,,,,,,,,,,,,,,,,,,0,13,13,13,,,,,,,,,,,,,,,,,242.28484599999865,,,,,,,,,,,,,,,242.25810359999923,242.28484599999865,243.23995490000016,,,,,,,,,,,,,,,,,,,,,,,,,,,,,,,,,,,,,,057148,001,2024-04-30_18h12.35.535,ArchivoPrueba,2024.1.1,None,2024-04-30 18h12.47.803430 -0500,
None,29,brown,,,,,,,,,,,,,,,,,,,,,0,14,14,14,,,,,,,,,,,,,,,,,243.26783169999908,,,,,,,,,,,,,,,243.24021679999896,243.26783169999908,244.25396790000013,,,,,,,,,,,,,,,,,,,,,,,,,,,,,,,,,,,,,,057148,001,2024-04-30_18h12.35.535,ArchivoPrueba,2024.1.1,None,2024-04-30 18h12.47.803430 -0500,
None,31,purple,,,,,,,,,,,,,,,,,,,,,0,15,15,15,,,,,,,,,,,,,,,,,244.28358300000036,,,,,,,,,,,,,,,244.25422999999864,244.28358300000036,245.23800870000014,,,,,,,,,,,,,,,,,,,,,,,,,,,,,,,,,,,,,,057148,001,2024-04-30_18h12.35.535,ArchivoPrueba,2024.1.1,None,2024-04-30 18h12.47.803430 -0500,
None,33,green,,,,,,,,,,,,,,,,,,,,,0,16,16,16,,,,,,,,,,,,,,,,,245.26579929999934,,,,,,,,,,,,,,,245.23831299999983,245.26579929999934,246.25340999999935,,,,,,,,,,,,,,,,,,,,,,,,,,,,,,,,,,,,,,057148,001,2024-04-30_18h12.35.535,ArchivoPrueba,2024.1.1,None,2024-04-30 18h12.47.803430 -0500,
None,35,red,,,,,,,,,,,,,,,,,,,,,0,17,17,17,,,,,,,,,,,,,,,,,246.28140819999862,,,,,,,,,,,,,,,246.25373129999934,246.28140819999862,247.23451810000006,,,,,,,,,,,,,,,,,,,,,,,,,,,,,,,,,,,,,,057148,001,2024-04-30_18h12.35.535,ArchivoPrueba,2024.1.1,None,2024-04-30 18h12.47.803430 -0500,
None,37,white,,,,,,,,,,,,,,,,,,,,,0,18,18,18,,,,,,,,,,,,,,,,,247.2643240999987,,,,,,,,,,,,,,,247.23483459999989,247.2643240999987,248.23568460000024,,,,,,,,,,,,,,,,,,,,,,,,,,,,,,,,,,,,,,057148,001,2024-04-30_18h12.35.535,ArchivoPrueba,2024.1.1,None,2024-04-30 18h12.47.803430 -0500,
None,39,blue,,,,,,,,,,,,,,,,,,,,,0,19,19,19,,,,,,,,,,,,,,,,,248.26356589999887,,,,,,,,,,,,,,,248.23594830000002,248.26356589999887,249.2490904999995,,,,,,,,,,,,,,,,,,,,,,,,,,,,,,,,,,,,,,057148,001,2024-04-30_18h12.35.535,ArchivoPrueba,2024.1.1,None,2024-04-30 18h12.47.803430 -0500,
,,,,,,,,,,,,,,,,,,,,,,,,,,,,,,,,,,,,,,,,,,,,,,,,,,,,,,,,,,,,,,,,,,,,,,,,,,,,249.24919149999914,249.26418980000017,269.2319582,,,,,,,,,,,,,,,,,,,,057148,001,2024-04-30_18h12.35.535,ArchivoPrueba,2024.1.1,None,2024-04-30 18h12.47.803430 -0500,
¿Recuerda el recorrido que realiza desde su cama hasta la cocina de su residencia?,1,green,,,,,,,,,,,,,,,,,,,,,,,,,0,0,0,0,,,,,,,,,,,,,269.26155839999956,,,,,,,,,,,,,,,269.24416439999914,269.26155839999956,270.2327368999995,,,,,,,,,,,,,,,,,,,,,,,,,,,,,,,,,,,,,,057148,001,2024-04-30_18h12.35.535,ArchivoPrueba,2024.1.1,None,2024-04-30 18h12.47.803430 -0500,
¿Recuerda el trayecto que hace desde su casa hasta su lugar de trabajo?,3,red,,,,,,,,,,,,,,,,,,,,,,,,,0,1,1,1,,,,,,,,,,,,,270.2604596000001,,,,,,,,,,,,,,,270.23303080000005,270.2604596000001,271.23061119999875,,,,,,,,,,,,,,,,,,,,,,,,,,,,,,,,,,,,,,057148,001,2024-04-30_18h12.35.535,ArchivoPrueba,2024.1.1,None,2024-04-30 18h12.47.803430 -0500,
¿Recuerda  algún inconveniente que ha  experimentado en el camino de su residencia a su lugar de trabajo?,5,white,,,,,,,,,,,,,,,,,,,,,,,,,0,2,2,2,,,,,,,,,,,,,271.25969819999955,,,,,,,,,,,,,,,271.2308737000003,271.25969819999955,272.23118169999907,,,,,,,,,,,,,,,,,,,,,,,,,,,,,,,,,,,,,,057148,001,2024-04-30_18h12.35.535,ArchivoPrueba,2024.1.1,None,2024-04-30 18h12.47.803430 -0500,
¿Recuerda si hay algún lugar u objeto en su camino hacia el trabajo que le llame la atención?,7,blue,,,,,,,,,,,,,,,,,,,,,,,,,0,3,3,3,,,,,,,,,,,,,272.25925429999916,,,,,,,,,,,,,,,272.2315097999999,272.25925429999916,273.22819290000007,,,,,,,,,,,,,,,,,,,,,,,,,,,,,,,,,,,,,,057148,001,2024-04-30_18h12.35.535,ArchivoPrueba,2024.1.1,None,2024-04-30 18h12.47.803430 -0500,
" ¿Recuerda el recorrido desde la entrada de su lugar de trabajo hasta su oficina, donde realiza sus funciones?",9,yellow,,,,,,,,,,,,,,,,,,,,,,,,,0,4,4,4,,,,,,,,,,,,,273.25781469999856,,,,,,,,,,,,,,,273.2284774,273.25781469999856,274.246547499999,,,,,,,,,,,,,,,,,,,,,,,,,,,,,,,,,,,,,,057148,001,2024-04-30_18h12.35.535,ArchivoPrueba,2024.1.1,None,2024-04-30 18h12.47.803430 -0500,
¿Recuerda alguna actividad que realice durante los viajes de regreso a casa desde el trabajo para relajarse?,11,orange,,,,,,,,,,,,,,,,,,,,,,,,,0,5,5,5,,,,,,,,,,,,,274.2737529999995,,,,,,,,,,,,,,,274.24681260000034,274.2737529999995,275.2435569999998,,,,,,,,,,,,,,,,,,,,,,,,,,,,,,,,,,,,,,057148,001,2024-04-30_18h12.35.535,ArchivoPrueba,2024.1.1,None,2024-04-30 18h12.47.803430 -0500,
¿Recuerda el trayecto que realiza desde su casa hasta el lugar donde realiza sus compras?,13,brown,,,,,,,,,,,,,,,,,,,,,,,,,0,6,6,6,,,,,,,,,,,,,275.27289070000006,,,,,,,,,,,,,,,275.2438724000003,275.27289070000006,276.261559999999,,,,,,,,,,,,,,,,,,,,,,,,,,,,,,,,,,,,,,057148,001,2024-04-30_18h12.35.535,ArchivoPrueba,2024.1.1,None,2024-04-30 18h12.47.803430 -0500,
¿Recuerda alguna situación divertida o interesante que haya experimentado durante el recorrido hacia el lugar de compras?,15,purple,,,,,,,,,,,,,,,,,,,,,,,,,0,7,7,7,,,,,,,,,,,,,276.2882446000003,,,,,,,,,,,,,,,276.2620855999994,276.2882446000003,277.25840459999927,,,,,,,,,,,,,,,,,,,,,,,,,,,,,,,,,,,,,,057148,001,2024-04-30_18h12.35.535,ArchivoPrueba,2024.1.1,None,2024-04-30 18h12.47.803430 -0500,
 ¿Recuerda qué es lo primero que ve al llegar al lugar donde realiza sus compras?,17,green,,,,,,,,,,,,,,,,,,,,,,,,,0,8,8,8,,,,,,,,,,,,,277.2875723999987,,,,,,,,,,,,,,,277.25871819999884,277.2875723999987,278.2434276999993,,,,,,,,,,,,,,,,,,,,,,,,,,,,,,,,,,,,,,057148,001,2024-04-30_18h12.35.535,ArchivoPrueba,2024.1.1,None,2024-04-30 18h12.47.803430 -0500,
¿Recuerda el recorrido desde su residencia hasta el centro de resonancia magnética?,19,red,,,,,,,,,,,,,,,,,,,,,,,,,0,9,9,9,,,,,,,,,,,,,278.270144099999,,,,,,,,,,,,,,,278.2440874999993,278.270144099999,279.25678789999984,,,,,,,,,,,,,,,,,,,,,,,,,,,,,,,,,,,,,,057148,001,2024-04-30_18h12.35.535,ArchivoPrueba,2024.1.1,None,2024-04-30 18h12.47.803430 -0500,
None,21,white,,,,,,,,,,,,,,,,,,,,,,,,,0,10,10,10,,,,,,,,,,,,,279.286312799999,,,,,,,,,,,,,,,279.25710739999886,279.286312799999,280.24174689999927,,,,,,,,,,,,,,,,,,,,,,,,,,,,,,,,,,,,,,057148,001,2024-04-30_18h12.35.535,ArchivoPrueba,2024.1.1,None,2024-04-30 18h12.47.803430 -0500,
None,23,blue,,,,,,,,,,,,,,,,,,,,,,,,,0,11,11,11,,,,,,,,,,,,,280.26905199999965,,,,,,,,,,,,,,,280.2423848999988,280.26905199999965,281.2435095000001,,,,,,,,,,,,,,,,,,,,,,,,,,,,,,,,,,,,,,057148,001,2024-04-30_18h12.35.535,ArchivoPrueba,2024.1.1,None,2024-04-30 18h12.47.803430 -0500,
None,25,yellow,,,,,,,,,,,,,,,,,,,,,,,,,0,12,12,12,,,,,,,,,,,,,281.26745329999903,,,,,,,,,,,,,,,281.24456699999973,281.26745329999903,282.2384476999996,,,,,,,,,,,,,,,,,,,,,,,,,,,,,,,,,,,,,,057148,001,2024-04-30_18h12.35.535,ArchivoPrueba,2024.1.1,None,2024-04-30 18h12.47.803430 -0500,
None,27,orange,,,,,,,,,,,,,,,,,,,,,,,,,0,13,13,13,,,,,,,,,,,,,282.2664685,,,,,,,,,,,,,,,282.2387173999996,282.2664685,283.2366192999998,,,,,,,,,,,,,,,,,,,,,,,,,,,,,,,,,,,,,,057148,001,2024-04-30_18h12.35.535,ArchivoPrueba,2024.1.1,None,2024-04-30 18h12.47.803430 -0500,
None,29,brown,,,,,,,,,,,,,,,,,,,,,,,,,0,14,14,14,,,,,,,,,,,,,283.2663857999996,,,,,,,,,,,,,,,283.23688109999966,283.2663857999996,284.2374385000003,,,,,,,,,,,,,,,,,,,,,,,,,,,,,,,,,,,,,,057148,001,2024-04-30_18h12.35.535,ArchivoPrueba,2024.1.1,None,2024-04-30 18h12.47.803430 -0500,
None,31,purple,,,,,,,,,,,,,,,,,,,,,,,,,0,15,15,15,,,,,,,,,,,,,284.2653749000001,,,,,,,,,,,,,,,284.2377209999995,284.2653749000001,285.25156979999883,,,,,,,,,,,,,,,,,,,,,,,,,,,,,,,,,,,,,,057148,001,2024-04-30_18h12.35.535,ArchivoPrueba,2024.1.1,None,2024-04-30 18h12.47.803430 -0500,
None,33,green,,,,,,,,,,,,,,,,,,,,,,,,,0,16,16,16,,,,,,,,,,,,,285.2809404999989,,,,,,,,,,,,,,,285.2518519999994,285.2809404999989,286.23362409999936,,,,,,,,,,,,,,,,,,,,,,,,,,,,,,,,,,,,,,057148,001,2024-04-30_18h12.35.535,ArchivoPrueba,2024.1.1,None,2024-04-30 18h12.47.803430 -0500,
None,35,red,,,,,,,,,,,,,,,,,,,,,,,,,0,17,17,17,,,,,,,,,,,,,286.2636027999997,,,,,,,,,,,,,,,286.23399900000004,286.2636027999997,287.233261899999,,,,,,,,,,,,,,,,,,,,,,,,,,,,,,,,,,,,,,057148,001,2024-04-30_18h12.35.535,ArchivoPrueba,2024.1.1,None,2024-04-30 18h12.47.803430 -0500,
None,37,white,,,,,,,,,,,,,,,,,,,,,,,,,0,18,18,18,,,,,,,,,,,,,287.26271799999995,,,,,,,,,,,,,,,287.23353510000015,287.26271799999995,288.2337095999992,,,,,,,,,,,,,,,,,,,,,,,,,,,,,,,,,,,,,,057148,001,2024-04-30_18h12.35.535,ArchivoPrueba,2024.1.1,None,2024-04-30 18h12.47.803430 -0500,
None,39,blue,,,,,,,,,,,,,,,,,,,,,,,,,0,19,19,19,,,,,,,,,,,,,288.2616203999987,,,,,,,,,,,,,,,288.2340031999993,288.2616203999987,289.24817710000025,,,,,,,,,,,,,,,,,,,,,,,,,,,,,,,,,,,,,,057148,001,2024-04-30_18h12.35.535,ArchivoPrueba,2024.1.1,None,2024-04-30 18h12.47.803430 -0500,
,,,,,,,,,,,,,,,,,,,,,,,,,,,,,,,,,,,,,,,,,,,,,,,,,,,,,,,,,,,,,,,,,,,,,,,,,,,,,,,289.24825769999916,289.2630644000001,309.24763989999883,,,,,,,,,,,,,,,,,057148,001,2024-04-30_18h12.35.535,ArchivoPrueba,2024.1.1,None,2024-04-30 18h12.47.803430 -0500,
¿Recuerda el recorrido que realiza desde su cama hasta la cocina de su residencia?,1,green,,,,,,,,,,,,,,,,,,,,,,,,,,,,,0,0,0,0,,,,,,,,,309.2774852000002,,,,,,,,,,,,,,,309.2600051999998,309.2774852000002,310.22950429999946,,,,,,,,,,,,,,,,,,,,,,,,,,,,,,,,,,,,,,057148,001,2024-04-30_18h12.35.535,ArchivoPrueba,2024.1.1,None,2024-04-30 18h12.47.803430 -0500,
¿Recuerda el trayecto que hace desde su casa hasta su lugar de trabajo?,3,red,,,,,,,,,,,,,,,,,,,,,,,,,,,,,0,1,1,1,,,,,,,,,310.2598462999995,,,,,,,,,,,,,,,310.22980519999874,310.2598462999995,311.2314430999995,,,,,,,,,,,,,,,,,,,,,,,,,,,,,,,,,,,,,,057148,001,2024-04-30_18h12.35.535,ArchivoPrueba,2024.1.1,None,2024-04-30 18h12.47.803430 -0500,
¿Recuerda  algún inconveniente que ha  experimentado en el camino de su residencia a su lugar de trabajo?,5,white,,,,,,,,,,,,,,,,,,,,,,,,,,,,,0,2,2,2,,,,,,,,,311.2588065,,,,,,,,,,,,,,,311.2319803999999,311.2588065,312.2284523999988,,,,,,,,,,,,,,,,,,,,,,,,,,,,,,,,,,,,,,057148,001,2024-04-30_18h12.35.535,ArchivoPrueba,2024.1.1,None,2024-04-30 18h12.47.803430 -0500,
¿Recuerda si hay algún lugar u objeto en su camino hacia el trabajo que le llame la atención?,7,blue,,,,,,,,,,,,,,,,,,,,,,,,,,,,,0,3,3,3,,,,,,,,,312.25790249999955,,,,,,,,,,,,,,,312.22880540000006,312.25790249999955,313.2317305999986,,,,,,,,,,,,,,,,,,,,,,,,,,,,,,,,,,,,,,057148,001,2024-04-30_18h12.35.535,ArchivoPrueba,2024.1.1,None,2024-04-30 18h12.47.803430 -0500,
" ¿Recuerda el recorrido desde la entrada de su lugar de trabajo hasta su oficina, donde realiza sus funciones?",9,yellow,,,,,,,,,,,,,,,,,,,,,,,,,,,,,0,4,4,4,,,,,,,,,313.2572509999991,,,,,,,,,,,,,,,313.23222579999856,313.2572509999991,314.2449177999988,,,,,,,,,,,,,,,,,,,,,,,,,,,,,,,,,,,,,,057148,001,2024-04-30_18h12.35.535,ArchivoPrueba,2024.1.1,None,2024-04-30 18h12.47.803430 -0500,
¿Recuerda alguna actividad que realice durante los viajes de regreso a casa desde el trabajo para relajarse?,11,orange,,,,,,,,,,,,,,,,,,,,,,,,,,,,,0,5,5,5,,,,,,,,,314.2723712999996,,,,,,,,,,,,,,,314.24534250000033,314.2723712999996,315.25858530000005,,,,,,,,,,,,,,,,,,,,,,,,,,,,,,,,,,,,,,057148,001,2024-04-30_18h12.35.535,ArchivoPrueba,2024.1.1,None,2024-04-30 18h12.47.803430 -0500,
¿Recuerda el trayecto que realiza desde su casa hasta el lugar donde realiza sus compras?,13,brown,,,,,,,,,,,,,,,,,,,,,,,,,,,,,0,6,6,6,,,,,,,,,315.2886546999998,,,,,,,,,,,,,,,315.2588902999996,315.2886546999998,316.24391019999894,,,,,,,,,,,,,,,,,,,,,,,,,,,,,,,,,,,,,,057148,001,2024-04-30_18h12.35.535,ArchivoPrueba,2024.1.1,None,2024-04-30 18h12.47.803430 -0500,
¿Recuerda alguna situación divertida o interesante que haya experimentado durante el recorrido hacia el lugar de compras?,15,purple,,,,,,,,,,,,,,,,,,,,,,,,,,,,,0,7,7,7,,,,,,,,,316.2710713999986,,,,,,,,,,,,,,,316.2445014999994,316.2710713999986,317.2572788999987,,,,,,,,,,,,,,,,,,,,,,,,,,,,,,,,,,,,,,057148,001,2024-04-30_18h12.35.535,ArchivoPrueba,2024.1.1,None,2024-04-30 18h12.47.803430 -0500,
 ¿Recuerda qué es lo primero que ve al llegar al lugar donde realiza sus compras?,17,green,,,,,,,,,,,,,,,,,,,,,,,,,,,,,0,8,8,8,,,,,,,,,317.2873534999999,,,,,,,,,,,,,,,317.25759089999883,317.2873534999999,318.2419248999995,,,,,,,,,,,,,,,,,,,,,,,,,,,,,,,,,,,,,,057148,001,2024-04-30_18h12.35.535,ArchivoPrueba,2024.1.1,None,2024-04-30 18h12.47.803430 -0500,
¿Recuerda el recorrido desde su residencia hasta el centro de resonancia magnética?,19,red,,,,,,,,,,,,,,,,,,,,,,,,,,,,,0,9,9,9,,,,,,,,,318.2690580999988,,,,,,,,,,,,,,,318.2426532999998,318.2690580999988,319.24085729999933,,,,,,,,,,,,,,,,,,,,,,,,,,,,,,,,,,,,,,057148,001,2024-04-30_18h12.35.535,ArchivoPrueba,2024.1.1,None,2024-04-30 18h12.47.803430 -0500,
None,21,white,,,,,,,,,,,,,,,,,,,,,,,,,,,,,0,10,10,10,,,,,,,,,319.2678500000002,,,,,,,,,,,,,,,319.2412406000003,319.2678500000002,320.2397241999988,,,,,,,,,,,,,,,,,,,,,,,,,,,,,,,,,,,,,,057148,001,2024-04-30_18h12.35.535,ArchivoPrueba,2024.1.1,None,2024-04-30 18h12.47.803430 -0500,
None,23,blue,,,,,,,,,,,,,,,,,,,,,,,,,,,,,0,11,11,11,,,,,,,,,320.26694569999927,,,,,,,,,,,,,,,320.2400199999993,320.26694569999927,321.2396270999998,,,,,,,,,,,,,,,,,,,,,,,,,,,,,,,,,,,,,,057148,001,2024-04-30_18h12.35.535,ArchivoPrueba,2024.1.1,None,2024-04-30 18h12.47.803430 -0500,
None,25,yellow,,,,,,,,,,,,,,,,,,,,,,,,,,,,,0,12,12,12,,,,,,,,,321.2667325000002,,,,,,,,,,,,,,,321.24018389999947,321.2667325000002,322.2362577999993,,,,,,,,,,,,,,,,,,,,,,,,,,,,,,,,,,,,,,057148,001,2024-04-30_18h12.35.535,ArchivoPrueba,2024.1.1,None,2024-04-30 18h12.47.803430 -0500,
None,27,orange,,,,,,,,,,,,,,,,,,,,,,,,,,,,,0,13,13,13,,,,,,,,,322.26550979999956,,,,,,,,,,,,,,,322.23654369999895,322.26550979999956,323.2354634000003,,,,,,,,,,,,,,,,,,,,,,,,,,,,,,,,,,,,,,057148,001,2024-04-30_18h12.35.535,ArchivoPrueba,2024.1.1,None,2024-04-30 18h12.47.803430 -0500,
None,29,brown,,,,,,,,,,,,,,,,,,,,,,,,,,,,,0,14,14,14,,,,,,,,,323.2650486000002,,,,,,,,,,,,,,,323.2357601999993,323.2650486000002,324.2510181999987,,,,,,,,,,,,,,,,,,,,,,,,,,,,,,,,,,,,,,057148,001,2024-04-30_18h12.35.535,ArchivoPrueba,2024.1.1,None,2024-04-30 18h12.47.803430 -0500,
None,31,purple,,,,,,,,,,,,,,,,,,,,,,,,,,,,,0,15,15,15,,,,,,,,,324.28057179999996,,,,,,,,,,,,,,,324.2513256000002,324.28057179999996,325.23562969999875,,,,,,,,,,,,,,,,,,,,,,,,,,,,,,,,,,,,,,057148,001,2024-04-30_18h12.35.535,ArchivoPrueba,2024.1.1,None,2024-04-30 18h12.47.803430 -0500,
None,33,green,,,,,,,,,,,,,,,,,,,,,,,,,,,,,0,16,16,16,,,,,,,,,325.2631067000002,,,,,,,,,,,,,,,325.2361019,325.2631067000002,326.2329248999995,,,,,,,,,,,,,,,,,,,,,,,,,,,,,,,,,,,,,,057148,001,2024-04-30_18h12.35.535,ArchivoPrueba,2024.1.1,None,2024-04-30 18h12.47.803430 -0500,
None,35,red,,,,,,,,,,,,,,,,,,,,,,,,,,,,,0,17,17,17,,,,,,,,,326.26258769999913,,,,,,,,,,,,,,,326.23324929999944,326.26258769999913,327.2488581999987,,,,,,,,,,,,,,,,,,,,,,,,,,,,,,,,,,,,,,057148,001,2024-04-30_18h12.35.535,ArchivoPrueba,2024.1.1,None,2024-04-30 18h12.47.803430 -0500,
None,37,white,,,,,,,,,,,,,,,,,,,,,,,,,,,,,0,18,18,18,,,,,,,,,327.2784097999993,,,,,,,,,,,,,,,327.24925989999974,327.2784097999993,328.23285659999965,,,,,,,,,,,,,,,,,,,,,,,,,,,,,,,,,,,,,,057148,001,2024-04-30_18h12.35.535,ArchivoPrueba,2024.1.1,None,2024-04-30 18h12.47.803430 -0500,
None,39,blue,,,,,,,,,,,,,,,,,,,,,,,,,,,,,0,19,19,19,,,,,,,,,328.26082529999985,,,,,,,,,,,,,,,328.2331734999989,328.26082529999985,329.2482822999991,,,,,,,,,,,,,,,,,,,,,,,,,,,,,,,,,,,,,,057148,001,2024-04-30_18h12.35.535,ArchivoPrueba,2024.1.1,None,2024-04-30 18h12.47.803430 -0500,
,,,,,,,,,,,,,,,,,,,,,,,,,,,,,,,,,,,,,,,,,,,,,,,,,,,,,,,,,,,,,,,,,,,,,,,,,,,,,,,,,,329.2483425999999,329.27669739999874,349.22948449999967,,,,,,,,,,,,,,057148,001,2024-04-30_18h12.35.535,ArchivoPrueba,2024.1.1,None,2024-04-30 18h12.47.803430 -0500,
¿Recuerda el recorrido que realiza desde su cama hasta la cocina de su residencia?,1,green,,,,,,,,,,,,,,,,,,,,,,,,,,,,,,,,,0,0,0,0,,,,,349.2591687999993,,,,,,,,,,,,,,,349.2420912999987,349.2591687999993,350.23058560000027,,,,,,,,,,,,,,,,,,,,,,,,,,,,,,,,,,,,,,057148,001,2024-04-30_18h12.35.535,ArchivoPrueba,2024.1.1,None,2024-04-30 18h12.47.803430 -0500,
¿Recuerda el trayecto que hace desde su casa hasta su lugar de trabajo?,3,red,,,,,,,,,,,,,,,,,,,,,,,,,,,,,,,,,0,1,1,1,,,,,350.25842190000003,,,,,,,,,,,,,,,350.23102669999935,350.25842190000003,351.2442143999997,,,,,,,,,,,,,,,,,,,,,,,,,,,,,,,,,,,,,,057148,001,2024-04-30_18h12.35.535,ArchivoPrueba,2024.1.1,None,2024-04-30 18h12.47.803430 -0500,
¿Recuerda  algún inconveniente que ha  experimentado en el camino de su residencia a su lugar de trabajo?,5,white,,,,,,,,,,,,,,,,,,,,,,,,,,,,,,,,,0,2,2,2,,,,,351.274227599999,,,,,,,,,,,,,,,351.24447879999934,351.274227599999,352.24539709999954,,,,,,,,,,,,,,,,,,,,,,,,,,,,,,,,,,,,,,057148,001,2024-04-30_18h12.35.535,ArchivoPrueba,2024.1.1,None,2024-04-30 18h12.47.803430 -0500,
¿Recuerda si hay algún lugar u objeto en su camino hacia el trabajo que le llame la atención?,7,blue,,,,,,,,,,,,,,,,,,,,,,,,,,,,,,,,,0,3,3,3,,,,,352.2731083999988,,,,,,,,,,,,,,,352.2457678999999,352.2731083999988,353.2417012999995,,,,,,,,,,,,,,,,,,,,,,,,,,,,,,,,,,,,,,057148,001,2024-04-30_18h12.35.535,ArchivoPrueba,2024.1.1,None,2024-04-30 18h12.47.803430 -0500,
" ¿Recuerda el recorrido desde la entrada de su lugar de trabajo hasta su oficina, donde realiza sus funciones?",9,yellow,,,,,,,,,,,,,,,,,,,,,,,,,,,,,,,,,0,4,4,4,,,,,353.27224430000024,,,,,,,,,,,,,,,353.24198929999875,353.27224430000024,354.24177809999856,,,,,,,,,,,,,,,,,,,,,,,,,,,,,,,,,,,,,,057148,001,2024-04-30_18h12.35.535,ArchivoPrueba,2024.1.1,None,2024-04-30 18h12.47.803430 -0500,
¿Recuerda alguna actividad que realice durante los viajes de regreso a casa desde el trabajo para relajarse?,11,orange,,,,,,,,,,,,,,,,,,,,,,,,,,,,,,,,,0,5,5,5,,,,,354.2714256999989,,,,,,,,,,,,,,,354.2420540000003,354.2714256999989,355.24083979999887,,,,,,,,,,,,,,,,,,,,,,,,,,,,,,,,,,,,,,057148,001,2024-04-30_18h12.35.535,ArchivoPrueba,2024.1.1,None,2024-04-30 18h12.47.803430 -0500,
¿Recuerda el trayecto que realiza desde su casa hasta el lugar donde realiza sus compras?,13,brown,,,,,,,,,,,,,,,,,,,,,,,,,,,,,,,,,0,6,6,6,,,,,355.2704537999998,,,,,,,,,,,,,,,355.2411721999997,355.2704537999998,356.2401773999991,,,,,,,,,,,,,,,,,,,,,,,,,,,,,,,,,,,,,,057148,001,2024-04-30_18h12.35.535,ArchivoPrueba,2024.1.1,None,2024-04-30 18h12.47.803430 -0500,
¿Recuerda alguna situación divertida o interesante que haya experimentado durante el recorrido hacia el lugar de compras?,15,purple,,,,,,,,,,,,,,,,,,,,,,,,,,,,,,,,,0,7,7,7,,,,,356.2699441999994,,,,,,,,,,,,,,,356.2404900999991,356.2699441999994,357.2390142999993,,,,,,,,,,,,,,,,,,,,,,,,,,,,,,,,,,,,,,057148,001,2024-04-30_18h12.35.535,ArchivoPrueba,2024.1.1,None,2024-04-30 18h12.47.803430 -0500,
 ¿Recuerda qué es lo primero que ve al llegar al lugar donde realiza sus compras?,17,green,,,,,,,,,,,,,,,,,,,,,,,,,,,,,,,,,0,8,8,8,,,,,357.26884900000005,,,,,,,,,,,,,,,357.23934929999996,357.26884900000005,358.24027509999905,,,,,,,,,,,,,,,,,,,,,,,,,,,,,,,,,,,,,,057148,001,2024-04-30_18h12.35.535,ArchivoPrueba,2024.1.1,None,2024-04-30 18h12.47.803430 -0500,
¿Recuerda el recorrido desde su residencia hasta el centro de resonancia magnética?,19,red,,,,,,,,,,,,,,,,,,,,,,,,,,,,,,,,,0,9,9,9,,,,,358.26782959999946,,,,,,,,,,,,,,,358.24077549999856,358.26782959999946,359.2539158999989,,,,,,,,,,,,,,,,,,,,,,,,,,,,,,,,,,,,,,057148,001,2024-04-30_18h12.35.535,ArchivoPrueba,2024.1.1,None,2024-04-30 18h12.47.803430 -0500,
None,21,white,,,,,,,,,,,,,,,,,,,,,,,,,,,,,,,,,0,10,10,10,,,,,359.2836575000001,,,,,,,,,,,,,,,359.2542070999989,359.2836575000001,360.2367954000001,,,,,,,,,,,,,,,,,,,,,,,,,,,,,,,,,,,,,,057148,001,2024-04-30_18h12.35.535,ArchivoPrueba,2024.1.1,None,2024-04-30 18h12.47.803430 -0500,
None,23,blue,,,,,,,,,,,,,,,,,,,,,,,,,,,,,,,,,0,11,11,11,,,,,360.26626039999974,,,,,,,,,,,,,,,360.23716090000016,360.26626039999974,361.2384939000003,,,,,,,,,,,,,,,,,,,,,,,,,,,,,,,,,,,,,,057148,001,2024-04-30_18h12.35.535,ArchivoPrueba,2024.1.1,None,2024-04-30 18h12.47.803430 -0500,
None,25,yellow,,,,,,,,,,,,,,,,,,,,,,,,,,,,,,,,,0,12,12,12,,,,,361.2656675999988,,,,,,,,,,,,,,,361.2390856000002,361.2656675999988,362.2345532999989,,,,,,,,,,,,,,,,,,,,,,,,,,,,,,,,,,,,,,057148,001,2024-04-30_18h12.35.535,ArchivoPrueba,2024.1.1,None,2024-04-30 18h12.47.803430 -0500,
None,27,orange,,,,,,,,,,,,,,,,,,,,,,,,,,,,,,,,,0,13,13,13,,,,,362.2644537999986,,,,,,,,,,,,,,,362.23483589999887,362.2644537999986,363.25081639999917,,,,,,,,,,,,,,,,,,,,,,,,,,,,,,,,,,,,,,057148,001,2024-04-30_18h12.35.535,ArchivoPrueba,2024.1.1,None,2024-04-30 18h12.47.803430 -0500,
None,29,brown,,,,,,,,,,,,,,,,,,,,,,,,,,,,,,,,,0,14,14,14,,,,,363.27974639999957,,,,,,,,,,,,,,,363.25111319999996,363.27974639999957,364.2495741999992,,,,,,,,,,,,,,,,,,,,,,,,,,,,,,,,,,,,,,057148,001,2024-04-30_18h12.35.535,ArchivoPrueba,2024.1.1,None,2024-04-30 18h12.47.803430 -0500,
None,31,purple,,,,,,,,,,,,,,,,,,,,,,,,,,,,,,,,,0,15,15,15,,,,,364.2790979000001,,,,,,,,,,,,,,,364.24990219999927,364.2790979000001,365.24828569999954,,,,,,,,,,,,,,,,,,,,,,,,,,,,,,,,,,,,,,057148,001,2024-04-30_18h12.35.535,ArchivoPrueba,2024.1.1,None,2024-04-30 18h12.47.803430 -0500,
None,33,green,,,,,,,,,,,,,,,,,,,,,,,,,,,,,,,,,0,16,16,16,,,,,365.2781825000002,,,,,,,,,,,,,,,365.2485735999999,365.2781825000002,366.2306482999993,,,,,,,,,,,,,,,,,,,,,,,,,,,,,,,,,,,,,,057148,001,2024-04-30_18h12.35.535,ArchivoPrueba,2024.1.1,None,2024-04-30 18h12.47.803430 -0500,
None,35,red,,,,,,,,,,,,,,,,,,,,,,,,,,,,,,,,,0,17,17,17,,,,,366.2603137999995,,,,,,,,,,,,,,,366.2310164999999,366.2603137999995,367.2316340999987,,,,,,,,,,,,,,,,,,,,,,,,,,,,,,,,,,,,,,057148,001,2024-04-30_18h12.35.535,ArchivoPrueba,2024.1.1,None,2024-04-30 18h12.47.803430 -0500,
None,37,white,,,,,,,,,,,,,,,,,,,,,,,,,,,,,,,,,0,18,18,18,,,,,367.25929579999865,,,,,,,,,,,,,,,367.2318966999992,367.25929579999865,368.24567469999965,,,,,,,,,,,,,,,,,,,,,,,,,,,,,,,,,,,,,,057148,001,2024-04-30_18h12.35.535,ArchivoPrueba,2024.1.1,None,2024-04-30 18h12.47.803430 -0500,
None,39,blue,,,,,,,,,,,,,,,,,,,,,,,,,,,,,,,,,0,19,19,19,,,,,368.2753167999999,,,,,,,,,,,,,,,368.2459579999995,368.2753167999999,369.2445932999999,,,,,,,,,,,,,,,,,,,,,,,,,,,,,,,,,,,,,,057148,001,2024-04-30_18h12.35.535,ArchivoPrueba,2024.1.1,None,2024-04-30 18h12.47.803430 -0500,
,,,,,,,,,,,,,,,,,,,,,,,,,,,,,,,,,,,,,,,,,,,,,,,,,,,,,,,,,,,,,,,,,,,,,,,,,,,,,,,,,,,,,369.2446519999994,369.2597287999997,389.2444835999995,,,,,,,,,,,057148,001,2024-04-30_18h12.35.535,ArchivoPrueba,2024.1.1,None,2024-04-30 18h12.47.803430 -0500,
¿Recuerda el recorrido que realiza desde su cama hasta la cocina de su residencia?,1,green,,,,,,,,,,,,,,,,,,,,,,,,,,,,,,,,,,,,,0,0,0,0,389.27457779999895,,,,,,,,,,,,,,,389.25638309999886,389.27457779999895,390.2289323999994,,,,,,,,,,,,,,,,,,,,,,,,,,,,,,,,,,,,,,057148,001,2024-04-30_18h12.35.535,ArchivoPrueba,2024.1.1,None,2024-04-30 18h12.47.803430 -0500,
¿Recuerda el trayecto que hace desde su casa hasta su lugar de trabajo?,3,red,,,,,,,,,,,,,,,,,,,,,,,,,,,,,,,,,,,,,0,1,1,1,390.2567089999993,,,,,,,,,,,,,,,390.22927569999956,390.2567089999993,391.24278669999876,,,,,,,,,,,,,,,,,,,,,,,,,,,,,,,,,,,,,,057148,001,2024-04-30_18h12.35.535,ArchivoPrueba,2024.1.1,None,2024-04-30 18h12.47.803430 -0500,
¿Recuerda  algún inconveniente que ha  experimentado en el camino de su residencia a su lugar de trabajo?,5,white,,,,,,,,,,,,,,,,,,,,,,,,,,,,,,,,,,,,,0,2,2,2,391.27271909999945,,,,,,,,,,,,,,,391.2431519999991,391.27271909999945,392.2434655999987,,,,,,,,,,,,,,,,,,,,,,,,,,,,,,,,,,,,,,057148,001,2024-04-30_18h12.35.535,ArchivoPrueba,2024.1.1,None,2024-04-30 18h12.47.803430 -0500,
¿Recuerda si hay algún lugar u objeto en su camino hacia el trabajo que le llame la atención?,7,blue,,,,,,,,,,,,,,,,,,,,,,,,,,,,,,,,,,,,,0,3,3,3,392.27156829999876,,,,,,,,,,,,,,,392.2437424999989,392.27156829999876,393.2413094000003,,,,,,,,,,,,,,,,,,,,,,,,,,,,,,,,,,,,,,057148,001,2024-04-30_18h12.35.535,ArchivoPrueba,2024.1.1,None,2024-04-30 18h12.47.803430 -0500,
" ¿Recuerda el recorrido desde la entrada de su lugar de trabajo hasta su oficina, donde realiza sus funciones?",9,yellow,,,,,,,,,,,,,,,,,,,,,,,,,,,,,,,,,,,,,0,4,4,4,393.2710255999991,,,,,,,,,,,,,,,393.2416065999987,393.2710255999991,394.2563957000002,,,,,,,,,,,,,,,,,,,,,,,,,,,,,,,,,,,,,,057148,001,2024-04-30_18h12.35.535,ArchivoPrueba,2024.1.1,None,2024-04-30 18h12.47.803430 -0500,
¿Recuerda alguna actividad que realice durante los viajes de regreso a casa desde el trabajo para relajarse?,11,orange,,,,,,,,,,,,,,,,,,,,,,,,,,,,,,,,,,,,,0,5,5,5,394.2867127999998,,,,,,,,,,,,,,,394.256682199999,394.2867127999998,395.2390462000003,,,,,,,,,,,,,,,,,,,,,,,,,,,,,,,,,,,,,,057148,001,2024-04-30_18h12.35.535,ArchivoPrueba,2024.1.1,None,2024-04-30 18h12.47.803430 -0500,
¿Recuerda el trayecto que realiza desde su casa hasta el lugar donde realiza sus compras?,13,brown,,,,,,,,,,,,,,,,,,,,,,,,,,,,,,,,,,,,,0,6,6,6,395.26852849999887,,,,,,,,,,,,,,,395.23941079999895,395.26852849999887,396.23850870000024,,,,,,,,,,,,,,,,,,,,,,,,,,,,,,,,,,,,,,057148,001,2024-04-30_18h12.35.535,ArchivoPrueba,2024.1.1,None,2024-04-30 18h12.47.803430 -0500,
¿Recuerda alguna situación divertida o interesante que haya experimentado durante el recorrido hacia el lugar de compras?,15,purple,,,,,,,,,,,,,,,,,,,,,,,,,,,,,,,,,,,,,0,7,7,7,396.26806699999906,,,,,,,,,,,,,,,396.2388265999998,396.26806699999906,397.23737979999896,,,,,,,,,,,,,,,,,,,,,,,,,,,,,,,,,,,,,,057148,001,2024-04-30_18h12.35.535,ArchivoPrueba,2024.1.1,None,2024-04-30 18h12.47.803430 -0500,
 ¿Recuerda qué es lo primero que ve al llegar al lugar donde realiza sus compras?,17,green,,,,,,,,,,,,,,,,,,,,,,,,,,,,,,,,,,,,,0,8,8,8,397.26664639999944,,,,,,,,,,,,,,,397.2376723999987,397.26664639999944,398.25359749999916,,,,,,,,,,,,,,,,,,,,,,,,,,,,,,,,,,,,,,057148,001,2024-04-30_18h12.35.535,ArchivoPrueba,2024.1.1,None,2024-04-30 18h12.47.803430 -0500,
¿Recuerda el recorrido desde su residencia hasta el centro de resonancia magnética?,19,red,,,,,,,,,,,,,,,,,,,,,,,,,,,,,,,,,,,,,0,9,9,9,398.2830778999996,,,,,,,,,,,,,,,398.25395359999857,398.2830778999996,399.25240680000024,,,,,,,,,,,,,,,,,,,,,,,,,,,,,,,,,,,,,,057148,001,2024-04-30_18h12.35.535,ArchivoPrueba,2024.1.1,None,2024-04-30 18h12.47.803430 -0500,
None,21,white,,,,,,,,,,,,,,,,,,,,,,,,,,,,,,,,,,,,,0,10,10,10,399.28231439999945,,,,,,,,,,,,,,,399.2527076999995,399.28231439999945,400.2342272999995,,,,,,,,,,,,,,,,,,,,,,,,,,,,,,,,,,,,,,057148,001,2024-04-30_18h12.35.535,ArchivoPrueba,2024.1.1,None,2024-04-30 18h12.47.803430 -0500,
None,23,blue,,,,,,,,,,,,,,,,,,,,,,,,,,,,,,,,,,,,,0,11,11,11,400.26463630000035,,,,,,,,,,,,,,,400.23454909999964,400.26463630000035,401.23419789999934,,,,,,,,,,,,,,,,,,,,,,,,,,,,,,,,,,,,,,057148,001,2024-04-30_18h12.35.535,ArchivoPrueba,2024.1.1,None,2024-04-30 18h12.47.803430 -0500,
None,25,yellow,,,,,,,,,,,,,,,,,,,,,,,,,,,,,,,,,,,,,0,12,12,12,401.2636466999993,,,,,,,,,,,,,,,401.23453789999985,401.2636466999993,402.23361939999995,,,,,,,,,,,,,,,,,,,,,,,,,,,,,,,,,,,,,,057148,001,2024-04-30_18h12.35.535,ArchivoPrueba,2024.1.1,None,2024-04-30 18h12.47.803430 -0500,
None,27,orange,,,,,,,,,,,,,,,,,,,,,,,,,,,,,,,,,,,,,0,13,13,13,402.26228509999964,,,,,,,,,,,,,,,402.233951799999,402.26228509999964,403.23294709999936,,,,,,,,,,,,,,,,,,,,,,,,,,,,,,,,,,,,,,057148,001,2024-04-30_18h12.35.535,ArchivoPrueba,2024.1.1,None,2024-04-30 18h12.47.803430 -0500,
None,29,brown,,,,,,,,,,,,,,,,,,,,,,,,,,,,,,,,,,,,,0,14,14,14,403.2619376999992,,,,,,,,,,,,,,,403.2332516999995,403.2619376999992,404.2477421000003,,,,,,,,,,,,,,,,,,,,,,,,,,,,,,,,,,,,,,057148,001,2024-04-30_18h12.35.535,ArchivoPrueba,2024.1.1,None,2024-04-30 18h12.47.803430 -0500,
None,31,purple,,,,,,,,,,,,,,,,,,,,,,,,,,,,,,,,,,,,,0,15,15,15,404.27774879999924,,,,,,,,,,,,,,,404.2480266999992,404.27774879999924,405.2470307000003,,,,,,,,,,,,,,,,,,,,,,,,,,,,,,,,,,,,,,057148,001,2024-04-30_18h12.35.535,ArchivoPrueba,2024.1.1,None,2024-04-30 18h12.47.803430 -0500,
None,33,green,,,,,,,,,,,,,,,,,,,,,,,,,,,,,,,,,,,,,0,16,16,16,405.2766649999994,,,,,,,,,,,,,,,405.24736549999943,405.2766649999994,406.2463040999992,,,,,,,,,,,,,,,,,,,,,,,,,,,,,,,,,,,,,,057148,001,2024-04-30_18h12.35.535,ArchivoPrueba,2024.1.1,None,2024-04-30 18h12.47.803430 -0500,
None,35,red,,,,,,,,,,,,,,,,,,,,,,,,,,,,,,,,,,,,,0,17,17,17,406.2761148999998,,,,,,,,,,,,,,,406.2465854000002,406.2761148999998,407.2285078999994,,,,,,,,,,,,,,,,,,,,,,,,,,,,,,,,,,,,,,057148,001,2024-04-30_18h12.35.535,ArchivoPrueba,2024.1.1,None,2024-04-30 18h12.47.803430 -0500,
None,37,white,,,,,,,,,,,,,,,,,,,,,,,,,,,,,,,,,,,,,0,18,18,18,407.25828639999963,,,,,,,,,,,,,,,407.2288559999997,407.25828639999963,408.2465076999997,,,,,,,,,,,,,,,,,,,,,,,,,,,,,,,,,,,,,,057148,001,2024-04-30_18h12.35.535,ArchivoPrueba,2024.1.1,None,2024-04-30 18h12.47.803430 -0500,
None,39,blue,,,,,,,,,,,,,,,,,,,,,,,,,,,,,,,,,,,,,0,19,19,19,408.2744437000001,,,,,,,,,,,,,,,408.2469394,408.2744437000001,409.24335129999963,,,,,,,,,,,,,,,,,,,,,,,,,,,,,,,,,,,,,,057148,001,2024-04-30_18h12.35.535,ArchivoPrueba,2024.1.1,None,2024-04-30 18h12.47.803430 -0500,
,,,,,,,,,,,,,,,,,,,,,,,,,,,,,,,,,,,,,,,,,,,,,,,,,,,,,,,,,,,,,,,,,,,,,,,,,,,,,,,,,,,,,,,,409.2434087999991,409.28749269999935,0.03786430000036489,411.97663789999933,[0.10069444444444445],[-0.04050925925925926],[1],[0],[0],[2.7102548999991996],057148,001,2024-04-30_18h12.35.535,ArchivoPrueba,2024.1.1,None,2024-04-30 18h12.47.803430 -0500,
