PreguntaOff,PreguntaOn,Colors,Prueba.thisRepN,Prueba.thisTrialN,Prueba.thisN,Prueba.thisIndex,RepeticionOn.thisRepN,RepeticionOn.thisTrialN,RepeticionOn.thisN,RepeticionOn.thisIndex,thisRow.t,notes,introducción_3.started,introducción.started,mouse.started,introducción_3.stopped,mouse.x,mouse.y,mouse.leftButton,mouse.midButton,mouse.rightButton,mouse.time,Off.started,CondicionOff.started,Off.stopped,On.started,CondicionOn.started,On.stopped,participant,session,date,expName,psychopyVersion,frameRate,expStart,
,,,,,,,,,,,,,0.061139100000218605,0.08494310000060068,0.060759300000427174,3.135604600000079,[-0.14322916666666666],[0.17057291666666666],[1],[0],[0],[3.0725364000008994],,,,,,,070615,001,2024-04-28_12h36.45.408,ArchivoPrueba,2024.1.1,None,2024-04-28 12h36.55.819701 -0500,
¿Recuerda el recorrido que realiza desde su cama hasta la cocina de su residencia?,1,green,0,0,0,0,0,0,0,0,4.2149394000007305,,,,,,,,,,,,3.1704911000015272,3.2324060999999347,4.14665050000076,4.175536500000817,4.2149394000007305,4.271150200000193,070615,001,2024-04-28_12h36.45.408,ArchivoPrueba,2024.1.1,None,2024-04-28 12h36.55.819701 -0500,
¿Recuerda el trayecto que hace desde su casa hasta su lugar de trabajo?,3,red,0,0,0,0,0,1,1,1,4.3144056000001,,,,,,,,,,,,,,,4.272902400000021,4.3144056000001,4.362961500000893,070615,001,2024-04-28_12h36.45.408,ArchivoPrueba,2024.1.1,None,2024-04-28 12h36.55.819701 -0500,
¿Recuerda  algún inconveniente que ha  experimentado en el camino de su residencia a su lugar de trabajo?,5,white,0,0,0,0,0,2,2,2,4.398331899999903,,,,,,,,,,,,,,,4.364421300000686,4.398331899999903,4.447382500000458,070615,001,2024-04-28_12h36.45.408,ArchivoPrueba,2024.1.1,None,2024-04-28 12h36.55.819701 -0500,
¿Recuerda si hay algún lugar u objeto en su camino hacia el trabajo que le llame la atención?,7,blue,0,0,0,0,0,3,3,3,4.4809745000002295,,,,,,,,,,,,,,,4.448597500000687,4.4809745000002295,4.563296199999968,070615,001,2024-04-28_12h36.45.408,ArchivoPrueba,2024.1.1,None,2024-04-28 12h36.55.819701 -0500,
" ¿Recuerda el recorrido desde la entrada de su lugar de trabajo hasta su oficina, donde realiza sus funciones?",9,yellow,0,0,0,0,0,4,4,4,4.5979088000003685,,,,,,,,,,,,,,,4.564480800001547,4.5979088000003685,4.646720800001276,070615,001,2024-04-28_12h36.45.408,ArchivoPrueba,2024.1.1,None,2024-04-28 12h36.55.819701 -0500,
¿Recuerda alguna actividad que realice durante los viajes de regreso a casa desde el trabajo para relajarse?,11,orange,0,0,0,0,0,5,5,5,4.682527000000846,,,,,,,,,,,,,,,4.648401600001307,4.682527000000846,4.764074700000492,070615,001,2024-04-28_12h36.45.408,ArchivoPrueba,2024.1.1,None,2024-04-28 12h36.55.819701 -0500,
¿Recuerda el trayecto que realiza desde su casa hasta el lugar donde realiza sus compras?,13,brown,0,0,0,0,0,6,6,6,4.799078800000643,,,,,,,,,,,,,,,4.765341100001024,4.799078800000643,4.844196699999884,070615,001,2024-04-28_12h36.45.408,ArchivoPrueba,2024.1.1,None,2024-04-28 12h36.55.819701 -0500,
¿Recuerda alguna situación divertida o interesante que haya experimentado durante el recorrido hacia el lugar de compras?,15,purple,0,0,0,0,0,7,7,7,4.882203300001493,,,,,,,,,,,,,,,4.845682500001203,4.882203300001493,4.963501199999882,070615,001,2024-04-28_12h36.45.408,ArchivoPrueba,2024.1.1,None,2024-04-28 12h36.55.819701 -0500,
 ¿Recuerda qué es lo primero que ve al llegar al lugar donde realiza sus compras?,17,green,0,0,0,0,0,8,8,8,4.998779200001081,,,,,,,,,,,,,,,4.9648107000011805,4.998779200001081,5.047037800000908,070615,001,2024-04-28_12h36.45.408,ArchivoPrueba,2024.1.1,None,2024-04-28 12h36.55.819701 -0500,
¿Recuerda el recorrido desde su residencia hasta el centro de resonancia magnética?,19,red,0,0,0,0,0,9,9,9,5.0821939000015846,,,,,,,,,,,,,,,5.048253700000714,5.0821939000015846,5.162363400000686,070615,001,2024-04-28_12h36.45.408,ArchivoPrueba,2024.1.1,None,2024-04-28 12h36.55.819701 -0500,
None,21,white,0,0,0,0,0,10,10,10,5.197479500000554,,,,,,,,,,,,,,,5.164035400001012,5.197479500000554,5.245062900001358,070615,001,2024-04-28_12h36.45.408,ArchivoPrueba,2024.1.1,None,2024-04-28 12h36.55.819701 -0500,
None,23,blue,0,0,0,0,0,11,11,11,5.281887300001472,,,,,,,,,,,,,,,5.246818800000256,5.281887300001472,5.362465000000157,070615,001,2024-04-28_12h36.45.408,ArchivoPrueba,2024.1.1,None,2024-04-28 12h36.55.819701 -0500,
None,25,yellow,0,0,0,0,0,12,12,12,5.399499800001649,,,,,,,,,,,,,,,5.364159900000232,5.399499800001649,5.445292000000336,070615,001,2024-04-28_12h36.45.408,ArchivoPrueba,2024.1.1,None,2024-04-28 12h36.55.819701 -0500,
None,27,orange,0,0,0,0,0,13,13,13,5.481831700000839,,,,,,,,,,,,,,,5.446750900000552,5.481831700000839,5.5621127000013075,070615,001,2024-04-28_12h36.45.408,ArchivoPrueba,2024.1.1,None,2024-04-28 12h36.55.819701 -0500,
None,29,brown,0,0,0,0,0,14,14,14,5.598976200000834,,,,,,,,,,,,,,,5.56355590000021,5.598976200000834,5.645521200000076,070615,001,2024-04-28_12h36.45.408,ArchivoPrueba,2024.1.1,None,2024-04-28 12h36.55.819701 -0500,
None,31,purple,0,0,0,0,0,15,15,15,5.681692100000873,,,,,,,,,,,,,,,5.646967900000163,5.681692100000873,5.760563200001343,070615,001,2024-04-28_12h36.45.408,ArchivoPrueba,2024.1.1,None,2024-04-28 12h36.55.819701 -0500,
None,33,green,0,0,0,0,0,16,16,16,5.798171899999943,,,,,,,,,,,,,,,5.762398100001519,5.798171899999943,5.846120200001678,070615,001,2024-04-28_12h36.45.408,ArchivoPrueba,2024.1.1,None,2024-04-28 12h36.55.819701 -0500,
None,35,red,0,0,0,0,0,17,17,17,5.881698200000756,,,,,,,,,,,,,,,5.847237900001346,5.881698200000756,5.96136370000022,070615,001,2024-04-28_12h36.45.408,ArchivoPrueba,2024.1.1,None,2024-04-28 12h36.55.819701 -0500,
None,37,white,0,0,0,0,0,18,18,18,5.99797960000069,,,,,,,,,,,,,,,5.962866900001245,5.99797960000069,6.044106200000897,070615,001,2024-04-28_12h36.45.408,ArchivoPrueba,2024.1.1,None,2024-04-28 12h36.55.819701 -0500,
None,39,blue,0,0,0,0,0,19,19,19,6.081635200000164,,,,,,,,,,,,,,,6.04519750000145,6.081635200000164,6.160809200000585,070615,001,2024-04-28_12h36.45.408,ArchivoPrueba,2024.1.1,None,2024-04-28 12h36.55.819701 -0500,
¿Recuerda el recorrido que realiza desde su cama hasta la cocina de su residencia?,1,green,0,0,0,0,,,,,,,,,,,,,,,,,,,,,,,070615,001,2024-04-28_12h36.45.408,ArchivoPrueba,2024.1.1,None,2024-04-28 12h36.55.819701 -0500,
¿Recuerda el recorrido que realiza desde su cama hasta la cocina de su residencia?,1,green,0,1,1,1,0,0,0,0,7.213659800001551,,,,,,,,,,,,6.162972400001308,6.212927200000195,7.159539700000096,7.19147090000115,7.213659800001551,7.261498500000016,070615,001,2024-04-28_12h36.45.408,ArchivoPrueba,2024.1.1,None,2024-04-28 12h36.55.819701 -0500,
¿Recuerda el trayecto que hace desde su casa hasta su lugar de trabajo?,3,red,0,1,1,1,0,1,1,1,7.296780600001512,,,,,,,,,,,,,,,7.2630593000012595,7.296780600001512,7.343657200000962,070615,001,2024-04-28_12h36.45.408,ArchivoPrueba,2024.1.1,None,2024-04-28 12h36.55.819701 -0500,
¿Recuerda  algún inconveniente que ha  experimentado en el camino de su residencia a su lugar de trabajo?,5,white,0,1,1,1,0,2,2,2,7.380285000001095,,,,,,,,,,,,,,,7.345219100001486,7.380285000001095,7.459017099999983,070615,001,2024-04-28_12h36.45.408,ArchivoPrueba,2024.1.1,None,2024-04-28 12h36.55.819701 -0500,
¿Recuerda si hay algún lugar u objeto en su camino hacia el trabajo que le llame la atención?,7,blue,0,1,1,1,0,3,3,3,7.496794399999999,,,,,,,,,,,,,,,7.46053110000139,7.496794399999999,7.543851000000359,070615,001,2024-04-28_12h36.45.408,ArchivoPrueba,2024.1.1,None,2024-04-28 12h36.55.819701 -0500,
" ¿Recuerda el recorrido desde la entrada de su lugar de trabajo hasta su oficina, donde realiza sus funciones?",9,yellow,0,1,1,1,0,4,4,4,7.57988640000076,,,,,,,,,,,,,,,7.545312800000829,7.57988640000076,7.661010499999975,070615,001,2024-04-28_12h36.45.408,ArchivoPrueba,2024.1.1,None,2024-04-28 12h36.55.819701 -0500,
¿Recuerda alguna actividad que realice durante los viajes de regreso a casa desde el trabajo para relajarse?,11,orange,0,1,1,1,0,5,5,5,7.696993999999904,,,,,,,,,,,,,,,7.662233900000501,7.696993999999904,7.745362400000886,070615,001,2024-04-28_12h36.45.408,ArchivoPrueba,2024.1.1,None,2024-04-28 12h36.55.819701 -0500,
¿Recuerda el trayecto que realiza desde su casa hasta el lugar donde realiza sus compras?,13,brown,0,1,1,1,0,6,6,6,7.779635700000654,,,,,,,,,,,,,,,7.7464858000003005,7.779635700000654,7.859378600000127,070615,001,2024-04-28_12h36.45.408,ArchivoPrueba,2024.1.1,None,2024-04-28 12h36.55.819701 -0500,
¿Recuerda alguna situación divertida o interesante que haya experimentado durante el recorrido hacia el lugar de compras?,15,purple,0,1,1,1,0,7,7,7,7.896424300000945,,,,,,,,,,,,,,,7.860788500000126,7.896424300000945,7.944126700000197,070615,001,2024-04-28_12h36.45.408,ArchivoPrueba,2024.1.1,None,2024-04-28 12h36.55.819701 -0500,
 ¿Recuerda qué es lo primero que ve al llegar al lugar donde realiza sus compras?,17,green,0,1,1,1,0,8,8,8,7.979705300000205,,,,,,,,,,,,,,,7.945369800001572,7.979705300000205,8.057472100001178,070615,001,2024-04-28_12h36.45.408,ArchivoPrueba,2024.1.1,None,2024-04-28 12h36.55.819701 -0500,
¿Recuerda el recorrido desde su residencia hasta el centro de resonancia magnética?,19,red,0,1,1,1,0,9,9,9,8.096235700000761,,,,,,,,,,,,,,,8.058763700000782,8.096235700000761,8.14318910000111,070615,001,2024-04-28_12h36.45.408,ArchivoPrueba,2024.1.1,None,2024-04-28 12h36.55.819701 -0500,
None,21,white,0,1,1,1,0,10,10,10,8.179548699999941,,,,,,,,,,,,,,,8.144841100000122,8.179548699999941,8.259403200001543,070615,001,2024-04-28_12h36.45.408,ArchivoPrueba,2024.1.1,None,2024-04-28 12h36.55.819701 -0500,
None,23,blue,0,1,1,1,0,11,11,11,8.296022500000618,,,,,,,,,,,,,,,8.260945100000754,8.296022500000618,8.340799600000537,070615,001,2024-04-28_12h36.45.408,ArchivoPrueba,2024.1.1,None,2024-04-28 12h36.55.819701 -0500,
None,25,yellow,0,1,1,1,0,12,12,12,8.37995360000059,,,,,,,,,,,,,,,8.341727600000013,8.37995360000059,8.45859350000137,070615,001,2024-04-28_12h36.45.408,ArchivoPrueba,2024.1.1,None,2024-04-28 12h36.55.819701 -0500,
None,27,orange,0,1,1,1,0,13,13,13,8.49578720000136,,,,,,,,,,,,,,,8.460636000001614,8.49578720000136,8.539982400001463,070615,001,2024-04-28_12h36.45.408,ArchivoPrueba,2024.1.1,None,2024-04-28 12h36.55.819701 -0500,
None,29,brown,0,1,1,1,0,14,14,14,8.579098200001681,,,,,,,,,,,,,,,8.540915600000517,8.579098200001681,8.659015799999906,070615,001,2024-04-28_12h36.45.408,ArchivoPrueba,2024.1.1,None,2024-04-28 12h36.55.819701 -0500,
None,31,purple,0,1,1,1,0,15,15,15,8.695572399999946,,,,,,,,,,,,,,,8.660558999999921,8.695572399999946,8.740842600000178,070615,001,2024-04-28_12h36.45.408,ArchivoPrueba,2024.1.1,None,2024-04-28 12h36.55.819701 -0500,
None,33,green,0,1,1,1,0,16,16,16,8.778867600000012,,,,,,,,,,,,,,,8.74234830000023,8.778867600000012,8.860365900000033,070615,001,2024-04-28_12h36.45.408,ArchivoPrueba,2024.1.1,None,2024-04-28 12h36.55.819701 -0500,
None,35,red,0,1,1,1,0,17,17,17,8.895754099999976,,,,,,,,,,,,,,,8.861657400000695,8.895754099999976,8.945396200000687,070615,001,2024-04-28_12h36.45.408,ArchivoPrueba,2024.1.1,None,2024-04-28 12h36.55.819701 -0500,
None,37,white,0,1,1,1,0,18,18,18,8.978711200001271,,,,,,,,,,,,,,,8.946390500001144,8.978711200001271,9.060328300000037,070615,001,2024-04-28_12h36.45.408,ArchivoPrueba,2024.1.1,None,2024-04-28 12h36.55.819701 -0500,
None,39,blue,0,1,1,1,0,19,19,19,9.096051700000316,,,,,,,,,,,,,,,9.06180250000034,9.096051700000316,9.141876100000445,070615,001,2024-04-28_12h36.45.408,ArchivoPrueba,2024.1.1,None,2024-04-28 12h36.55.819701 -0500,
¿Recuerda el trayecto que hace desde su casa hasta su lugar de trabajo?,3,red,0,1,1,1,,,,,,,,,,,,,,,,,,,,,,,070615,001,2024-04-28_12h36.45.408,ArchivoPrueba,2024.1.1,None,2024-04-28 12h36.55.819701 -0500,
¿Recuerda el recorrido que realiza desde su cama hasta la cocina de su residencia?,1,green,0,2,2,2,0,0,0,0,10.227752300001157,,,,,,,,,,,,9.143788800000038,9.193778200000452,10.158244700000068,10.195191000000705,10.227752300001157,10.243107800000871,070615,001,2024-04-28_12h36.45.408,ArchivoPrueba,2024.1.1,None,2024-04-28 12h36.55.819701 -0500,
¿Recuerda el trayecto que hace desde su casa hasta su lugar de trabajo?,3,red,0,2,2,2,0,1,1,1,10.277572700000746,,,,,,,,,,,,,,,10.244411700001365,10.277572700000746,10.355526200000895,070615,001,2024-04-28_12h36.45.408,ArchivoPrueba,2024.1.1,None,2024-04-28 12h36.55.819701 -0500,
¿Recuerda  algún inconveniente que ha  experimentado en el camino de su residencia a su lugar de trabajo?,5,white,0,2,2,2,0,2,2,2,10.394566599999962,,,,,,,,,,,,,,,10.356567600001654,10.394566599999962,10.44237300000168,070615,001,2024-04-28_12h36.45.408,ArchivoPrueba,2024.1.1,None,2024-04-28 12h36.55.819701 -0500,
¿Recuerda si hay algún lugar u objeto en su camino hacia el trabajo que le llame la atención?,7,blue,0,2,2,2,0,3,3,3,10.477536200000031,,,,,,,,,,,,,,,10.443587700001444,10.477536200000031,10.55827760000102,070615,001,2024-04-28_12h36.45.408,ArchivoPrueba,2024.1.1,None,2024-04-28 12h36.55.819701 -0500,
" ¿Recuerda el recorrido desde la entrada de su lugar de trabajo hasta su oficina, donde realiza sus funciones?",9,yellow,0,2,2,2,0,4,4,4,10.594044400000712,,,,,,,,,,,,,,,10.559350200001063,10.594044400000712,10.643701800001509,070615,001,2024-04-28_12h36.45.408,ArchivoPrueba,2024.1.1,None,2024-04-28 12h36.55.819701 -0500,
¿Recuerda alguna actividad que realice durante los viajes de regreso a casa desde el trabajo para relajarse?,11,orange,0,2,2,2,0,5,5,5,10.677603800000725,,,,,,,,,,,,,,,10.644879400000718,10.677603800000725,10.760787600000185,070615,001,2024-04-28_12h36.45.408,ArchivoPrueba,2024.1.1,None,2024-04-28 12h36.55.819701 -0500,
¿Recuerda el trayecto que realiza desde su casa hasta el lugar donde realiza sus compras?,13,brown,0,2,2,2,0,6,6,6,10.793953899999906,,,,,,,,,,,,,,,10.76196230000096,10.793953899999906,10.840188400001352,070615,001,2024-04-28_12h36.45.408,ArchivoPrueba,2024.1.1,None,2024-04-28 12h36.55.819701 -0500,
¿Recuerda alguna situación divertida o interesante que haya experimentado durante el recorrido hacia el lugar de compras?,15,purple,0,2,2,2,0,7,7,7,10.877322300000742,,,,,,,,,,,,,,,10.841337300000305,10.877322300000742,10.961593300000459,070615,001,2024-04-28_12h36.45.408,ArchivoPrueba,2024.1.1,None,2024-04-28 12h36.55.819701 -0500,
 ¿Recuerda qué es lo primero que ve al llegar al lugar donde realiza sus compras?,17,green,0,2,2,2,0,8,8,8,10.994294699999955,,,,,,,,,,,,,,,10.962918100000024,10.994294699999955,11.042501500000071,070615,001,2024-04-28_12h36.45.408,ArchivoPrueba,2024.1.1,None,2024-04-28 12h36.55.819701 -0500,
¿Recuerda el recorrido desde su residencia hasta el centro de resonancia magnética?,19,red,0,2,2,2,0,9,9,9,11.094414600000164,,,,,,,,,,,,,,,11.045121800001652,11.094414600000164,11.165084800000841,070615,001,2024-04-28_12h36.45.408,ArchivoPrueba,2024.1.1,None,2024-04-28 12h36.55.819701 -0500,
None,21,white,0,2,2,2,0,10,10,10,11.210380100001203,,,,,,,,,,,,,,,11.16657640000085,11.210380100001203,11.2650749000004,070615,001,2024-04-28_12h36.45.408,ArchivoPrueba,2024.1.1,None,2024-04-28 12h36.55.819701 -0500,
None,23,blue,0,2,2,2,0,11,11,11,11.294113200001448,,,,,,,,,,,,,,,11.26625039999999,11.294113200001448,11.36147500000152,070615,001,2024-04-28_12h36.45.408,ArchivoPrueba,2024.1.1,None,2024-04-28 12h36.55.819701 -0500,
None,25,yellow,0,2,2,2,0,12,12,12,11.394758400001592,,,,,,,,,,,,,,,11.362842900000032,11.394758400001592,11.453310800001418,070615,001,2024-04-28_12h36.45.408,ArchivoPrueba,2024.1.1,None,2024-04-28 12h36.55.819701 -0500,
None,27,orange,0,2,2,2,0,13,13,13,11.492960400000811,,,,,,,,,,,,,,,11.454411700000492,11.492960400000811,11.537155600000915,070615,001,2024-04-28_12h36.45.408,ArchivoPrueba,2024.1.1,None,2024-04-28 12h36.55.819701 -0500,
None,29,brown,0,2,2,2,0,14,14,14,11.560308500000247,,,,,,,,,,,,,,,11.53807500000039,11.560308500000247,11.64203770000131,070615,001,2024-04-28_12h36.45.408,ArchivoPrueba,2024.1.1,None,2024-04-28 12h36.55.819701 -0500,
None,31,purple,0,2,2,2,0,15,15,15,11.676619000001665,,,,,,,,,,,,,,,11.6429834999999,11.676619000001665,11.75733990000117,070615,001,2024-04-28_12h36.45.408,ArchivoPrueba,2024.1.1,None,2024-04-28 12h36.55.819701 -0500,
None,33,green,0,2,2,2,0,16,16,16,11.792924300001687,,,,,,,,,,,,,,,11.758590900000854,11.792924300001687,11.839580700001534,070615,001,2024-04-28_12h36.45.408,ArchivoPrueba,2024.1.1,None,2024-04-28 12h36.55.819701 -0500,
None,35,red,0,2,2,2,0,17,17,17,11.87616750000052,,,,,,,,,,,,,,,11.841060300001118,11.87616750000052,11.953724000000875,070615,001,2024-04-28_12h36.45.408,ArchivoPrueba,2024.1.1,None,2024-04-28 12h36.55.819701 -0500,
None,37,white,0,2,2,2,0,18,18,18,11.992533900000126,,,,,,,,,,,,,,,11.954657199999929,11.992533900000126,12.038554000000659,070615,001,2024-04-28_12h36.45.408,ArchivoPrueba,2024.1.1,None,2024-04-28 12h36.55.819701 -0500,
None,39,blue,0,2,2,2,0,19,19,19,12.075799400001415,,,,,,,,,,,,,,,12.040116200001648,12.075799400001415,12.152020500001527,070615,001,2024-04-28_12h36.45.408,ArchivoPrueba,2024.1.1,None,2024-04-28 12h36.55.819701 -0500,
¿Recuerda  algún inconveniente que ha  experimentado en el camino de su residencia a su lugar de trabajo?,5,white,0,2,2,2,,,,,,,,,,,,,,,,,,,,,,,070615,001,2024-04-28_12h36.45.408,ArchivoPrueba,2024.1.1,None,2024-04-28 12h36.55.819701 -0500,
¿Recuerda el recorrido que realiza desde su cama hasta la cocina de su residencia?,1,green,0,3,3,3,0,0,0,0,13.224641100001463,,,,,,,,,,,,12.153286700000535,12.191316899999947,13.169377600001098,13.198872800001482,13.224641100001463,13.269095400000879,070615,001,2024-04-28_12h36.45.408,ArchivoPrueba,2024.1.1,None,2024-04-28 12h36.55.819701 -0500,
¿Recuerda el trayecto que hace desde su casa hasta su lugar de trabajo?,3,red,0,3,3,3,0,1,1,1,13.291327700000693,,,,,,,,,,,,,,,13.27024320000055,13.291327700000693,13.371797400001014,070615,001,2024-04-28_12h36.45.408,ArchivoPrueba,2024.1.1,None,2024-04-28 12h36.55.819701 -0500,
¿Recuerda  algún inconveniente que ha  experimentado en el camino de su residencia a su lugar de trabajo?,5,white,0,3,3,3,0,2,2,2,13.408749400001398,,,,,,,,,,,,,,,13.373199300000124,13.408749400001398,13.451370300001145,070615,001,2024-04-28_12h36.45.408,ArchivoPrueba,2024.1.1,None,2024-04-28 12h36.55.819701 -0500,
¿Recuerda si hay algún lugar u objeto en su camino hacia el trabajo que le llame la atención?,7,blue,0,3,3,3,0,3,3,3,13.47461690000091,,,,,,,,,,,,,,,13.452431300000171,13.47461690000091,13.5523344000012,070615,001,2024-04-28_12h36.45.408,ArchivoPrueba,2024.1.1,None,2024-04-28 12h36.55.819701 -0500,
" ¿Recuerda el recorrido desde la entrada de su lugar de trabajo hasta su oficina, donde realiza sus funciones?",9,yellow,0,3,3,3,0,4,4,4,13.574641300001531,,,,,,,,,,,,,,,13.553291800000807,13.574641300001531,13.652201800001421,070615,001,2024-04-28_12h36.45.408,ArchivoPrueba,2024.1.1,None,2024-04-28 12h36.55.819701 -0500,
¿Recuerda alguna actividad que realice durante los viajes de regreso a casa desde el trabajo para relajarse?,11,orange,0,3,3,3,0,5,5,5,13.67454490000091,,,,,,,,,,,,,,,13.653487500001575,13.67454490000091,13.753233200000977,070615,001,2024-04-28_12h36.45.408,ArchivoPrueba,2024.1.1,None,2024-04-28 12h36.55.819701 -0500,
¿Recuerda el trayecto que realiza desde su casa hasta el lugar donde realiza sus compras?,13,brown,0,3,3,3,0,6,6,6,13.774406100001215,,,,,,,,,,,,,,,13.754466899999898,13.774406100001215,13.85052110000106,070615,001,2024-04-28_12h36.45.408,ArchivoPrueba,2024.1.1,None,2024-04-28 12h36.55.819701 -0500,
¿Recuerda alguna situación divertida o interesante que haya experimentado durante el recorrido hacia el lugar de compras?,15,purple,0,3,3,3,0,7,7,7,13.874119000000064,,,,,,,,,,,,,,,13.851524000001518,13.874119000000064,13.95170120000148,070615,001,2024-04-28_12h36.45.408,ArchivoPrueba,2024.1.1,None,2024-04-28 12h36.55.819701 -0500,
 ¿Recuerda qué es lo primero que ve al llegar al lugar donde realiza sus compras?,17,green,0,3,3,3,0,8,8,8,13.974091500000213,,,,,,,,,,,,,,,13.952613299999939,13.974091500000213,14.05186810000123,070615,001,2024-04-28_12h36.45.408,ArchivoPrueba,2024.1.1,None,2024-04-28 12h36.55.819701 -0500,
¿Recuerda el recorrido desde su residencia hasta el centro de resonancia magnética?,19,red,0,3,3,3,0,9,9,9,14.090938400000596,,,,,,,,,,,,,,,14.052917200000593,14.090938400000596,14.166898100000253,070615,001,2024-04-28_12h36.45.408,ArchivoPrueba,2024.1.1,None,2024-04-28 12h36.55.819701 -0500,
None,21,white,0,3,3,3,0,10,10,10,14.190875600001164,,,,,,,,,,,,,,,14.167875600000116,14.190875600001164,14.266966000001048,070615,001,2024-04-28_12h36.45.408,ArchivoPrueba,2024.1.1,None,2024-04-28 12h36.55.819701 -0500,
None,23,blue,0,3,3,3,0,11,11,11,14.29063170000154,,,,,,,,,,,,,,,14.267838100000517,14.29063170000154,14.370457500001066,070615,001,2024-04-28_12h36.45.408,ArchivoPrueba,2024.1.1,None,2024-04-28 12h36.55.819701 -0500,
None,25,yellow,0,3,3,3,0,12,12,12,14.40707730000031,,,,,,,,,,,,,,,14.371715000001132,14.40707730000031,14.451907800001209,070615,001,2024-04-28_12h36.45.408,ArchivoPrueba,2024.1.1,None,2024-04-28 12h36.55.819701 -0500,
None,27,orange,0,3,3,3,0,13,13,13,14.473684600001434,,,,,,,,,,,,,,,14.452918599999975,14.473684600001434,14.553301200001442,070615,001,2024-04-28_12h36.45.408,ArchivoPrueba,2024.1.1,None,2024-04-28 12h36.55.819701 -0500,
None,29,brown,0,3,3,3,0,14,14,14,14.59054290000131,,,,,,,,,,,,,,,14.554817100000946,14.59054290000131,14.636469000000943,070615,001,2024-04-28_12h36.45.408,ArchivoPrueba,2024.1.1,None,2024-04-28 12h36.55.819701 -0500,
None,31,purple,0,3,3,3,0,15,15,15,14.673917800000709,,,,,,,,,,,,,,,14.63836270000138,14.673917800000709,14.753877099999954,070615,001,2024-04-28_12h36.45.408,ArchivoPrueba,2024.1.1,None,2024-04-28 12h36.55.819701 -0500,
None,33,green,0,3,3,3,0,16,16,16,14.790517000001273,,,,,,,,,,,,,,,14.755218600001172,14.790517000001273,14.837094900000011,070615,001,2024-04-28_12h36.45.408,ArchivoPrueba,2024.1.1,None,2024-04-28 12h36.55.819701 -0500,
None,35,red,0,3,3,3,0,17,17,17,14.873650700001235,,,,,,,,,,,,,,,14.838752200001181,14.873650700001235,14.954265400001532,070615,001,2024-04-28_12h36.45.408,ArchivoPrueba,2024.1.1,None,2024-04-28 12h36.55.819701 -0500,
None,37,white,0,3,3,3,0,18,18,18,14.990195000000313,,,,,,,,,,,,,,,14.955411700000695,14.990195000000313,15.037540100000115,070615,001,2024-04-28_12h36.45.408,ArchivoPrueba,2024.1.1,None,2024-04-28 12h36.55.819701 -0500,
None,39,blue,0,3,3,3,0,19,19,19,15.074145900000076,,,,,,,,,,,,,,,15.038765500001318,15.074145900000076,15.154023200000665,070615,001,2024-04-28_12h36.45.408,ArchivoPrueba,2024.1.1,None,2024-04-28 12h36.55.819701 -0500,
¿Recuerda si hay algún lugar u objeto en su camino hacia el trabajo que le llame la atención?,7,blue,0,3,3,3,,,,,,,,,,,,,,,,,,,,,,,070615,001,2024-04-28_12h36.45.408,ArchivoPrueba,2024.1.1,None,2024-04-28 12h36.55.819701 -0500,
¿Recuerda el recorrido que realiza desde su cama hasta la cocina de su residencia?,1,green,0,4,4,4,0,0,0,0,16.25553190000028,,,,,,,,,,,,15.155633800000942,15.205206800001179,16.166691400001582,16.223212900000362,16.25553190000028,16.26758130000053,070615,001,2024-04-28_12h36.45.408,ArchivoPrueba,2024.1.1,None,2024-04-28 12h36.55.819701 -0500,
¿Recuerda el trayecto que hace desde su casa hasta su lugar de trabajo?,3,red,0,4,4,4,0,1,1,1,16.288001000000804,,,,,,,,,,,,,,,16.268227800001114,16.288001000000804,16.3479051000013,070615,001,2024-04-28_12h36.45.408,ArchivoPrueba,2024.1.1,None,2024-04-28 12h36.55.819701 -0500,
¿Recuerda  algún inconveniente que ha  experimentado en el camino de su residencia a su lugar de trabajo?,5,white,0,4,4,4,0,2,2,2,16.371695400001045,,,,,,,,,,,,,,,16.348583000000872,16.371695400001045,16.44831400000112,070615,001,2024-04-28_12h36.45.408,ArchivoPrueba,2024.1.1,None,2024-04-28 12h36.55.819701 -0500,
¿Recuerda si hay algún lugar u objeto en su camino hacia el trabajo que le llame la atención?,7,blue,0,4,4,4,0,3,3,3,16.47200850000081,,,,,,,,,,,,,,,16.44959000000017,16.47200850000081,16.55848050000168,070615,001,2024-04-28_12h36.45.408,ArchivoPrueba,2024.1.1,None,2024-04-28 12h36.55.819701 -0500,
" ¿Recuerda el recorrido desde la entrada de su lugar de trabajo hasta su oficina, donde realiza sus funciones?",9,yellow,0,4,4,4,0,4,4,4,16.589029100001426,,,,,,,,,,,,,,,16.559631699999954,16.589029100001426,16.64205740000034,070615,001,2024-04-28_12h36.45.408,ArchivoPrueba,2024.1.1,None,2024-04-28 12h36.55.819701 -0500,
¿Recuerda alguna actividad que realice durante los viajes de regreso a casa desde el trabajo para relajarse?,11,orange,0,4,4,4,0,5,5,5,16.67242830000032,,,,,,,,,,,,,,,16.64350689999992,16.67242830000032,16.761634100001174,070615,001,2024-04-28_12h36.45.408,ArchivoPrueba,2024.1.1,None,2024-04-28 12h36.55.819701 -0500,
¿Recuerda el trayecto que realiza desde su casa hasta el lugar donde realiza sus compras?,13,brown,0,4,4,4,0,6,6,6,16.787549700000454,,,,,,,,,,,,,,,16.762234400001034,16.787549700000454,16.8644776000001,070615,001,2024-04-28_12h36.45.408,ArchivoPrueba,2024.1.1,None,2024-04-28 12h36.55.819701 -0500,
¿Recuerda alguna situación divertida o interesante que haya experimentado durante el recorrido hacia el lugar de compras?,15,purple,0,4,4,4,0,7,7,7,16.887485300001572,,,,,,,,,,,,,,,16.86527720000049,16.887485300001572,16.946908500000063,070615,001,2024-04-28_12h36.45.408,ArchivoPrueba,2024.1.1,None,2024-04-28 12h36.55.819701 -0500,
 ¿Recuerda qué es lo primero que ve al llegar al lugar donde realiza sus compras?,17,green,0,4,4,4,0,8,8,8,16.970702399999936,,,,,,,,,,,,,,,16.947441500000423,16.970702399999936,17.047779100001208,070615,001,2024-04-28_12h36.45.408,ArchivoPrueba,2024.1.1,None,2024-04-28 12h36.55.819701 -0500,
¿Recuerda el recorrido desde su residencia hasta el centro de resonancia magnética?,19,red,0,4,4,4,0,9,9,9,17.071359100000336,,,,,,,,,,,,,,,17.048539400000664,17.071359100000336,17.147260300000198,070615,001,2024-04-28_12h36.45.408,ArchivoPrueba,2024.1.1,None,2024-04-28 12h36.55.819701 -0500,
None,21,white,0,4,4,4,0,10,10,10,17.17025950000061,,,,,,,,,,,,,,,17.14789000000019,17.17025950000061,17.263500200000635,070615,001,2024-04-28_12h36.45.408,ArchivoPrueba,2024.1.1,None,2024-04-28 12h36.55.819701 -0500,
None,23,blue,0,4,4,4,0,11,11,11,17.287490000000616,,,,,,,,,,,,,,,17.26417180000135,17.287490000000616,17.34768880000047,070615,001,2024-04-28_12h36.45.408,ArchivoPrueba,2024.1.1,None,2024-04-28 12h36.55.819701 -0500,
None,25,yellow,0,4,4,4,0,12,12,12,17.371043200000713,,,,,,,,,,,,,,,17.34829600000012,17.371043200000713,17.443720300001587,070615,001,2024-04-28_12h36.45.408,ArchivoPrueba,2024.1.1,None,2024-04-28 12h36.55.819701 -0500,
None,27,orange,0,4,4,4,0,13,13,13,17.47041640000134,,,,,,,,,,,,,,,17.444156500001554,17.47041640000134,17.544120100001237,070615,001,2024-04-28_12h36.45.408,ArchivoPrueba,2024.1.1,None,2024-04-28 12h36.55.819701 -0500,
None,29,brown,0,4,4,4,0,14,14,14,17.5703553000003,,,,,,,,,,,,,,,17.544607100000576,17.5703553000003,17.662173300001086,070615,001,2024-04-28_12h36.45.408,ArchivoPrueba,2024.1.1,None,2024-04-28 12h36.55.819701 -0500,
None,31,purple,0,4,4,4,0,15,15,15,17.687716700000237,,,,,,,,,,,,,,,17.662727000000814,17.687716700000237,17.746703000000707,070615,001,2024-04-28_12h36.45.408,ArchivoPrueba,2024.1.1,None,2024-04-28 12h36.55.819701 -0500,
None,33,green,0,4,4,4,0,16,16,16,17.770025700001497,,,,,,,,,,,,,,,17.747493500000928,17.770025700001497,17.860821100000976,070615,001,2024-04-28_12h36.45.408,ArchivoPrueba,2024.1.1,None,2024-04-28 12h36.55.819701 -0500,
None,35,red,0,4,4,4,0,17,17,17,17.886395300000004,,,,,,,,,,,,,,,17.86138470000151,17.886395300000004,17.94593040000109,070615,001,2024-04-28_12h36.45.408,ArchivoPrueba,2024.1.1,None,2024-04-28 12h36.55.819701 -0500,
None,37,white,0,4,4,4,0,18,18,18,17.970389600001,,,,,,,,,,,,,,,17.946616400000494,17.970389600001,18.04734940000162,070615,001,2024-04-28_12h36.45.408,ArchivoPrueba,2024.1.1,None,2024-04-28 12h36.55.819701 -0500,
None,39,blue,0,4,4,4,0,19,19,19,18.070200200001636,,,,,,,,,,,,,,,18.048266200001308,18.070200200001636,18.148159899999882,070615,001,2024-04-28_12h36.45.408,ArchivoPrueba,2024.1.1,None,2024-04-28 12h36.55.819701 -0500,
" ¿Recuerda el recorrido desde la entrada de su lugar de trabajo hasta su oficina, donde realiza sus funciones?",9,yellow,0,4,4,4,,,,,,,,,,,,,,,,,,,,,,,070615,001,2024-04-28_12h36.45.408,ArchivoPrueba,2024.1.1,None,2024-04-28 12h36.55.819701 -0500,
¿Recuerda el recorrido que realiza desde su cama hasta la cocina de su residencia?,1,green,0,5,5,5,0,0,0,0,19.203095900000335,,,,,,,,,,,,18.14927650000027,18.186869400000433,19.14736500000072,19.173464600000443,19.203095900000335,19.244391500000347,070615,001,2024-04-28_12h36.45.408,ArchivoPrueba,2024.1.1,None,2024-04-28 12h36.55.819701 -0500,
¿Recuerda el trayecto que hace desde su casa hasta su lugar de trabajo?,3,red,0,5,5,5,0,1,1,1,19.269419300000663,,,,,,,,,,,,,,,19.24519180000061,19.269419300000663,19.344921500000055,070615,001,2024-04-28_12h36.45.408,ArchivoPrueba,2024.1.1,None,2024-04-28 12h36.55.819701 -0500,
¿Recuerda  algún inconveniente que ha  experimentado en el camino de su residencia a su lugar de trabajo?,5,white,0,5,5,5,0,2,2,2,19.36978040000031,,,,,,,,,,,,,,,19.34564540000065,19.36978040000031,19.444750500000737,070615,001,2024-04-28_12h36.45.408,ArchivoPrueba,2024.1.1,None,2024-04-28 12h36.55.819701 -0500,
¿Recuerda si hay algún lugar u objeto en su camino hacia el trabajo que le llame la atención?,7,blue,0,5,5,5,0,3,3,3,19.46937120000075,,,,,,,,,,,,,,,19.445489200001248,19.46937120000075,19.54576470000029,070615,001,2024-04-28_12h36.45.408,ArchivoPrueba,2024.1.1,None,2024-04-28 12h36.55.819701 -0500,
" ¿Recuerda el recorrido desde la entrada de su lugar de trabajo hasta su oficina, donde realiza sus funciones?",9,yellow,0,5,5,5,0,4,4,4,19.569090300001335,,,,,,,,,,,,,,,19.546549600001526,19.569090300001335,19.64589640000122,070615,001,2024-04-28_12h36.45.408,ArchivoPrueba,2024.1.1,None,2024-04-28 12h36.55.819701 -0500,
¿Recuerda alguna actividad que realice durante los viajes de regreso a casa desde el trabajo para relajarse?,11,orange,0,5,5,5,0,5,5,5,19.66948670000056,,,,,,,,,,,,,,,19.646881000000576,19.66948670000056,19.746083300000464,070615,001,2024-04-28_12h36.45.408,ArchivoPrueba,2024.1.1,None,2024-04-28 12h36.55.819701 -0500,
¿Recuerda el trayecto que realiza desde su casa hasta el lugar donde realiza sus compras?,13,brown,0,5,5,5,0,6,6,6,19.769102100000964,,,,,,,,,,,,,,,19.747022900000957,19.769102100000964,19.847676700001102,070615,001,2024-04-28_12h36.45.408,ArchivoPrueba,2024.1.1,None,2024-04-28 12h36.55.819701 -0500,
¿Recuerda alguna situación divertida o interesante que haya experimentado durante el recorrido hacia el lugar de compras?,15,purple,0,5,5,5,0,7,7,7,19.88538990000052,,,,,,,,,,,,,,,19.84855620000053,19.88538990000052,19.95954669999992,070615,001,2024-04-28_12h36.45.408,ArchivoPrueba,2024.1.1,None,2024-04-28 12h36.55.819701 -0500,
 ¿Recuerda qué es lo primero que ve al llegar al lugar donde realiza sus compras?,17,green,0,5,5,5,0,8,8,8,19.98494870000104,,,,,,,,,,,,,,,19.960226300001523,19.98494870000104,20.068016400000488,070615,001,2024-04-28_12h36.45.408,ArchivoPrueba,2024.1.1,None,2024-04-28 12h36.55.819701 -0500,
¿Recuerda el recorrido desde su residencia hasta el centro de resonancia magnética?,19,red,0,5,5,5,0,9,9,9,20.1024021000012,,,,,,,,,,,,,,,20.069981500000722,20.1024021000012,20.143296199999895,070615,001,2024-04-28_12h36.45.408,ArchivoPrueba,2024.1.1,None,2024-04-28 12h36.55.819701 -0500,
None,21,white,0,5,5,5,0,10,10,10,20.168221100000665,,,,,,,,,,,,,,,20.14377930000046,20.168221100000665,20.25891800000136,070615,001,2024-04-28_12h36.45.408,ArchivoPrueba,2024.1.1,None,2024-04-28 12h36.55.819701 -0500,
None,23,blue,0,5,5,5,0,11,11,11,20.284695000000283,,,,,,,,,,,,,,,20.259445600000618,20.284695000000283,20.361232400000517,070615,001,2024-04-28_12h36.45.408,ArchivoPrueba,2024.1.1,None,2024-04-28 12h36.55.819701 -0500,
None,25,yellow,0,5,5,5,0,12,12,12,20.384828500000367,,,,,,,,,,,,,,,20.362062900001547,20.384828500000367,20.45821100000103,070615,001,2024-04-28_12h36.45.408,ArchivoPrueba,2024.1.1,None,2024-04-28 12h36.55.819701 -0500,
None,27,orange,0,5,5,5,0,13,13,13,20.484460100000433,,,,,,,,,,,,,,,20.458710000000792,20.484460100000433,20.542979600000763,070615,001,2024-04-28_12h36.45.408,ArchivoPrueba,2024.1.1,None,2024-04-28 12h36.55.819701 -0500,
None,29,brown,0,5,5,5,0,14,14,14,20.567975100000695,,,,,,,,,,,,,,,20.543794799999887,20.567975100000695,20.640302700001484,070615,001,2024-04-28_12h36.45.408,ArchivoPrueba,2024.1.1,None,2024-04-28 12h36.55.819701 -0500,
None,31,purple,0,5,5,5,0,15,15,15,20.66743730000053,,,,,,,,,,,,,,,20.640836300000956,20.66743730000053,20.741517500000555,070615,001,2024-04-28_12h36.45.408,ArchivoPrueba,2024.1.1,None,2024-04-28 12h36.55.819701 -0500,
None,33,green,0,5,5,5,0,16,16,16,20.76787030000014,,,,,,,,,,,,,,,20.742175600000337,20.76787030000014,20.861001600000236,070615,001,2024-04-28_12h36.45.408,ArchivoPrueba,2024.1.1,None,2024-04-28 12h36.55.819701 -0500,
None,35,red,0,5,5,5,0,17,17,17,20.883996900000056,,,,,,,,,,,,,,,20.861934700000347,20.883996900000056,20.957251200001338,070615,001,2024-04-28_12h36.45.408,ArchivoPrueba,2024.1.1,None,2024-04-28 12h36.55.819701 -0500,
None,37,white,0,5,5,5,0,18,18,18,20.983485400000063,,,,,,,,,,,,,,,20.957995600001595,20.983485400000063,21.04018520000136,070615,001,2024-04-28_12h36.45.408,ArchivoPrueba,2024.1.1,None,2024-04-28 12h36.55.819701 -0500,
None,39,blue,0,5,5,5,0,19,19,19,21.067539900001066,,,,,,,,,,,,,,,21.04078280000067,21.067539900001066,21.157488300001205,070615,001,2024-04-28_12h36.45.408,ArchivoPrueba,2024.1.1,None,2024-04-28 12h36.55.819701 -0500,
¿Recuerda alguna actividad que realice durante los viajes de regreso a casa desde el trabajo para relajarse?,11,orange,0,5,5,5,,,,,,,,,,,,,,,,,,,,,,,070615,001,2024-04-28_12h36.45.408,ArchivoPrueba,2024.1.1,None,2024-04-28 12h36.55.819701 -0500,
¿Recuerda el recorrido que realiza desde su cama hasta la cocina de su residencia?,1,green,0,6,6,6,0,0,0,0,22.19949220000126,,,,,,,,,,,,21.158305000000837,21.18359370000144,22.157375600001615,22.17826480000076,22.19949220000126,22.257038000001558,070615,001,2024-04-28_12h36.45.408,ArchivoPrueba,2024.1.1,None,2024-04-28 12h36.55.819701 -0500,
¿Recuerda el trayecto que hace desde su casa hasta su lugar de trabajo?,3,red,0,6,6,6,0,1,1,1,22.28273630000149,,,,,,,,,,,,,,,22.25759780000044,22.28273630000149,22.341085900001417,070615,001,2024-04-28_12h36.45.408,ArchivoPrueba,2024.1.1,None,2024-04-28 12h36.55.819701 -0500,
¿Recuerda  algún inconveniente que ha  experimentado en el camino de su residencia a su lugar de trabajo?,5,white,0,6,6,6,0,2,2,2,22.36627540000154,,,,,,,,,,,,,,,22.34160350000093,22.36627540000154,22.442787500000122,070615,001,2024-04-28_12h36.45.408,ArchivoPrueba,2024.1.1,None,2024-04-28 12h36.55.819701 -0500,
¿Recuerda si hay algún lugar u objeto en su camino hacia el trabajo que le llame la atención?,7,blue,0,6,6,6,0,3,3,3,22.46614210000007,,,,,,,,,,,,,,,22.443476800001008,22.46614210000007,22.540006600000197,070615,001,2024-04-28_12h36.45.408,ArchivoPrueba,2024.1.1,None,2024-04-28 12h36.55.819701 -0500,
" ¿Recuerda el recorrido desde la entrada de su lugar de trabajo hasta su oficina, donde realiza sus funciones?",9,yellow,0,6,6,6,0,4,4,4,22.56567300000097,,,,,,,,,,,,,,,22.540489200000593,22.56567300000097,22.640784600000188,070615,001,2024-04-28_12h36.45.408,ArchivoPrueba,2024.1.1,None,2024-04-28 12h36.55.819701 -0500,
¿Recuerda alguna actividad que realice durante los viajes de regreso a casa desde el trabajo para relajarse?,11,orange,0,6,6,6,0,5,5,5,22.665545900001234,,,,,,,,,,,,,,,22.64140210000005,22.665545900001234,22.742775700000493,070615,001,2024-04-28_12h36.45.408,ArchivoPrueba,2024.1.1,None,2024-04-28 12h36.55.819701 -0500,
¿Recuerda el trayecto que realiza desde su casa hasta el lugar donde realiza sus compras?,13,brown,0,6,6,6,0,6,6,6,22.765492200000153,,,,,,,,,,,,,,,22.74342539999998,22.765492200000153,22.859062900000936,070615,001,2024-04-28_12h36.45.408,ArchivoPrueba,2024.1.1,None,2024-04-28 12h36.55.819701 -0500,
¿Recuerda alguna situación divertida o interesante que haya experimentado durante el recorrido hacia el lugar de compras?,15,purple,0,6,6,6,0,7,7,7,22.882654800001546,,,,,,,,,,,,,,,22.85980710000149,22.882654800001546,22.9542990000009,070615,001,2024-04-28_12h36.45.408,ArchivoPrueba,2024.1.1,None,2024-04-28 12h36.55.819701 -0500,
 ¿Recuerda qué es lo primero que ve al llegar al lugar donde realiza sus compras?,17,green,0,6,6,6,0,8,8,8,22.9822451,,,,,,,,,,,,,,,22.954740500001208,22.9822451,23.039685499999905,070615,001,2024-04-28_12h36.45.408,ArchivoPrueba,2024.1.1,None,2024-04-28 12h36.55.819701 -0500,
¿Recuerda el recorrido desde su residencia hasta el centro de resonancia magnética?,19,red,0,6,6,6,0,9,9,9,23.065643300000374,,,,,,,,,,,,,,,23.040346300000238,23.065643300000374,23.14122430000134,070615,001,2024-04-28_12h36.45.408,ArchivoPrueba,2024.1.1,None,2024-04-28 12h36.55.819701 -0500,
None,21,white,0,6,6,6,0,10,10,10,23.16510130000097,,,,,,,,,,,,,,,23.141638400000375,23.16510130000097,23.25858260000132,070615,001,2024-04-28_12h36.45.408,ArchivoPrueba,2024.1.1,None,2024-04-28 12h36.55.819701 -0500,
None,23,blue,0,6,6,6,0,11,11,11,23.28171530000145,,,,,,,,,,,,,,,23.259384200000568,23.28171530000145,23.33964890000061,070615,001,2024-04-28_12h36.45.408,ArchivoPrueba,2024.1.1,None,2024-04-28 12h36.55.819701 -0500,
None,25,yellow,0,6,6,6,0,12,12,12,23.365550400001666,,,,,,,,,,,,,,,23.340498900000966,23.365550400001666,23.457699600001433,070615,001,2024-04-28_12h36.45.408,ArchivoPrueba,2024.1.1,None,2024-04-28 12h36.55.819701 -0500,
None,27,orange,0,6,6,6,0,13,13,13,23.481541500001185,,,,,,,,,,,,,,,23.45840230000067,23.481541500001185,23.547254000000976,070615,001,2024-04-28_12h36.45.408,ArchivoPrueba,2024.1.1,None,2024-04-28 12h36.55.819701 -0500,
None,29,brown,0,6,6,6,0,14,14,14,23.564738700000817,,,,,,,,,,,,,,,23.547850900000412,23.564738700000817,23.640499400000408,070615,001,2024-04-28_12h36.45.408,ArchivoPrueba,2024.1.1,None,2024-04-28 12h36.55.819701 -0500,
None,31,purple,0,6,6,6,0,15,15,15,23.664865100001407,,,,,,,,,,,,,,,23.641164300001037,23.664865100001407,23.759891500001686,070615,001,2024-04-28_12h36.45.408,ArchivoPrueba,2024.1.1,None,2024-04-28 12h36.55.819701 -0500,
None,33,green,0,6,6,6,0,16,16,16,23.781543400000373,,,,,,,,,,,,,,,23.7607147000017,23.781543400000373,23.857125200000155,070615,001,2024-04-28_12h36.45.408,ArchivoPrueba,2024.1.1,None,2024-04-28 12h36.55.819701 -0500,
None,35,red,0,6,6,6,0,17,17,17,23.881382400000803,,,,,,,,,,,,,,,23.85789830000067,23.881382400000803,23.93854740000097,070615,001,2024-04-28_12h36.45.408,ArchivoPrueba,2024.1.1,None,2024-04-28 12h36.55.819701 -0500,
None,37,white,0,6,6,6,0,18,18,18,23.964779800000542,,,,,,,,,,,,,,,23.939214800000627,23.964779800000542,24.042619600000762,070615,001,2024-04-28_12h36.45.408,ArchivoPrueba,2024.1.1,None,2024-04-28 12h36.55.819701 -0500,
None,39,blue,0,6,6,6,0,19,19,19,24.06463520000034,,,,,,,,,,,,,,,24.043312499999956,24.06463520000034,24.154274600001372,070615,001,2024-04-28_12h36.45.408,ArchivoPrueba,2024.1.1,None,2024-04-28 12h36.55.819701 -0500,
¿Recuerda el trayecto que realiza desde su casa hasta el lugar donde realiza sus compras?,13,brown,0,6,6,6,,,,,,,,,,,,,,,,,,,,,,,070615,001,2024-04-28_12h36.45.408,ArchivoPrueba,2024.1.1,None,2024-04-28 12h36.55.819701 -0500,
¿Recuerda el recorrido que realiza desde su cama hasta la cocina de su residencia?,1,green,0,7,7,7,0,0,0,0,25.197268600000825,,,,,,,,,,,,24.155016700000488,24.1815813000012,25.157381100001658,25.17557040000065,25.197268600000825,25.24154920000001,070615,001,2024-04-28_12h36.45.408,ArchivoPrueba,2024.1.1,None,2024-04-28 12h36.55.819701 -0500,
¿Recuerda el trayecto que hace desde su casa hasta su lugar de trabajo?,3,red,0,7,7,7,0,1,1,1,25.280084900001384,,,,,,,,,,,,,,,25.24236970000129,25.280084900001384,25.354457400000683,070615,001,2024-04-28_12h36.45.408,ArchivoPrueba,2024.1.1,None,2024-04-28 12h36.55.819701 -0500,
¿Recuerda  algún inconveniente que ha  experimentado en el camino de su residencia a su lugar de trabajo?,5,white,0,7,7,7,0,2,2,2,25.38006100000166,,,,,,,,,,,,,,,25.354975400001422,25.38006100000166,25.437286800000948,070615,001,2024-04-28_12h36.45.408,ArchivoPrueba,2024.1.1,None,2024-04-28 12h36.55.819701 -0500,
¿Recuerda si hay algún lugar u objeto en su camino hacia el trabajo que le llame la atención?,7,blue,0,7,7,7,0,3,3,3,25.463085400000637,,,,,,,,,,,,,,,25.437825599999996,25.463085400000637,25.558524200001557,070615,001,2024-04-28_12h36.45.408,ArchivoPrueba,2024.1.1,None,2024-04-28 12h36.55.819701 -0500,
" ¿Recuerda el recorrido desde la entrada de su lugar de trabajo hasta su oficina, donde realiza sus funciones?",9,yellow,0,7,7,7,0,4,4,4,25.580268400000932,,,,,,,,,,,,,,,25.559379600001193,25.580268400000932,25.65372750000097,070615,001,2024-04-28_12h36.45.408,ArchivoPrueba,2024.1.1,None,2024-04-28 12h36.55.819701 -0500,
¿Recuerda alguna actividad que realice durante los viajes de regreso a casa desde el trabajo para relajarse?,11,orange,0,7,7,7,0,5,5,5,25.6796213000016,,,,,,,,,,,,,,,25.65424930000154,25.6796213000016,25.737572700001692,070615,001,2024-04-28_12h36.45.408,ArchivoPrueba,2024.1.1,None,2024-04-28 12h36.55.819701 -0500,
¿Recuerda el trayecto que realiza desde su casa hasta el lugar donde realiza sus compras?,13,brown,0,7,7,7,0,6,6,6,25.763862200001313,,,,,,,,,,,,,,,25.738231500001348,25.763862200001313,25.83927170000061,070615,001,2024-04-28_12h36.45.408,ArchivoPrueba,2024.1.1,None,2024-04-28 12h36.55.819701 -0500,
¿Recuerda alguna situación divertida o interesante que haya experimentado durante el recorrido hacia el lugar de compras?,15,purple,0,7,7,7,0,7,7,7,25.863638400000127,,,,,,,,,,,,,,,25.83999390000099,25.863638400000127,25.93832580000162,070615,001,2024-04-28_12h36.45.408,ArchivoPrueba,2024.1.1,None,2024-04-28 12h36.55.819701 -0500,
 ¿Recuerda qué es lo primero que ve al llegar al lugar donde realiza sus compras?,17,green,0,7,7,7,0,8,8,8,25.963568200000736,,,,,,,,,,,,,,,25.93898900000022,25.963568200000736,26.040089699999953,070615,001,2024-04-28_12h36.45.408,ArchivoPrueba,2024.1.1,None,2024-04-28 12h36.55.819701 -0500,
¿Recuerda el recorrido desde su residencia hasta el centro de resonancia magnética?,19,red,0,7,7,7,0,9,9,9,26.063593400000173,,,,,,,,,,,,,,,26.04089070000009,26.063593400000173,26.139882299999954,070615,001,2024-04-28_12h36.45.408,ArchivoPrueba,2024.1.1,None,2024-04-28 12h36.55.819701 -0500,
None,21,white,0,7,7,7,0,10,10,10,26.16357590000007,,,,,,,,,,,,,,,26.140724700000646,26.16357590000007,26.240025400000377,070615,001,2024-04-28_12h36.45.408,ArchivoPrueba,2024.1.1,None,2024-04-28 12h36.55.819701 -0500,
None,23,blue,0,7,7,7,0,11,11,11,26.26339950000147,,,,,,,,,,,,,,,26.24081540000043,26.26339950000147,26.340325700000903,070615,001,2024-04-28_12h36.45.408,ArchivoPrueba,2024.1.1,None,2024-04-28 12h36.55.819701 -0500,
None,25,yellow,0,7,7,7,0,12,12,12,26.36349430000155,,,,,,,,,,,,,,,26.341270400000212,26.36349430000155,26.440454100000352,070615,001,2024-04-28_12h36.45.408,ArchivoPrueba,2024.1.1,None,2024-04-28 12h36.55.819701 -0500,
None,27,orange,0,7,7,7,0,13,13,13,26.46337930000118,,,,,,,,,,,,,,,26.441635300001508,26.46337930000118,26.540166200000385,070615,001,2024-04-28_12h36.45.408,ArchivoPrueba,2024.1.1,None,2024-04-28 12h36.55.819701 -0500,
None,29,brown,0,7,7,7,0,14,14,14,26.56304220000129,,,,,,,,,,,,,,,26.54100240000116,26.56304220000129,26.639828900000794,070615,001,2024-04-28_12h36.45.408,ArchivoPrueba,2024.1.1,None,2024-04-28 12h36.55.819701 -0500,
None,31,purple,0,7,7,7,0,15,15,15,26.662885100000494,,,,,,,,,,,,,,,26.6407147000009,26.662885100000494,26.739153200000146,070615,001,2024-04-28_12h36.45.408,ArchivoPrueba,2024.1.1,None,2024-04-28 12h36.55.819701 -0500,
None,33,green,0,7,7,7,0,16,16,16,26.76301990000138,,,,,,,,,,,,,,,26.739912200000617,26.76301990000138,26.838681400000496,070615,001,2024-04-28_12h36.45.408,ArchivoPrueba,2024.1.1,None,2024-04-28 12h36.55.819701 -0500,
None,35,red,0,7,7,7,0,17,17,17,26.862949400001526,,,,,,,,,,,,,,,26.839605400000437,26.862949400001526,26.938431200000196,070615,001,2024-04-28_12h36.45.408,ArchivoPrueba,2024.1.1,None,2024-04-28 12h36.55.819701 -0500,
None,37,white,0,7,7,7,0,18,18,18,26.96284040000137,,,,,,,,,,,,,,,26.939207100000203,26.96284040000137,27.038338000000294,070615,001,2024-04-28_12h36.45.408,ArchivoPrueba,2024.1.1,None,2024-04-28 12h36.55.819701 -0500,
None,39,blue,0,7,7,7,0,19,19,19,27.062524300001314,,,,,,,,,,,,,,,27.039187100001072,27.062524300001314,27.139446600000156,070615,001,2024-04-28_12h36.45.408,ArchivoPrueba,2024.1.1,None,2024-04-28 12h36.55.819701 -0500,
¿Recuerda alguna situación divertida o interesante que haya experimentado durante el recorrido hacia el lugar de compras?,15,purple,0,7,7,7,,,,,,,,,,,,,,,,,,,,,,,070615,001,2024-04-28_12h36.45.408,ArchivoPrueba,2024.1.1,None,2024-04-28 12h36.55.819701 -0500,
¿Recuerda el recorrido que realiza desde su cama hasta la cocina de su residencia?,1,green,0,8,8,8,0,0,0,0,28.211737300000095,,,,,,,,,,,,27.14066129999992,27.177932700000383,28.15498220000154,28.18120530000124,28.211737300000095,28.25505130000056,070615,001,2024-04-28_12h36.45.408,ArchivoPrueba,2024.1.1,None,2024-04-28 12h36.55.819701 -0500,
¿Recuerda el trayecto que hace desde su casa hasta su lugar de trabajo?,3,red,0,8,8,8,0,1,1,1,28.278347100000246,,,,,,,,,,,,,,,28.256018300000505,28.278347100000246,28.354851800000688,070615,001,2024-04-28_12h36.45.408,ArchivoPrueba,2024.1.1,None,2024-04-28 12h36.55.819701 -0500,
¿Recuerda  algún inconveniente que ha  experimentado en el camino de su residencia a su lugar de trabajo?,5,white,0,8,8,8,0,2,2,2,28.378448299999945,,,,,,,,,,,,,,,28.355651600000783,28.378448299999945,28.45507760000146,070615,001,2024-04-28_12h36.45.408,ArchivoPrueba,2024.1.1,None,2024-04-28 12h36.55.819701 -0500,
¿Recuerda si hay algún lugar u objeto en su camino hacia el trabajo que le llame la atención?,7,blue,0,8,8,8,0,3,3,3,28.478290100001686,,,,,,,,,,,,,,,28.456000100000892,28.478290100001686,28.554644400001052,070615,001,2024-04-28_12h36.45.408,ArchivoPrueba,2024.1.1,None,2024-04-28 12h36.55.819701 -0500,
" ¿Recuerda el recorrido desde la entrada de su lugar de trabajo hasta su oficina, donde realiza sus funciones?",9,yellow,0,8,8,8,0,4,4,4,28.57822500000111,,,,,,,,,,,,,,,28.55552930000158,28.57822500000111,28.65459390000069,070615,001,2024-04-28_12h36.45.408,ArchivoPrueba,2024.1.1,None,2024-04-28 12h36.55.819701 -0500,
¿Recuerda alguna actividad que realice durante los viajes de regreso a casa desde el trabajo para relajarse?,11,orange,0,8,8,8,0,5,5,5,28.677794600000198,,,,,,,,,,,,,,,28.65548090000084,28.677794600000198,28.754498700000113,070615,001,2024-04-28_12h36.45.408,ArchivoPrueba,2024.1.1,None,2024-04-28 12h36.55.819701 -0500,
¿Recuerda el trayecto que realiza desde su casa hasta el lugar donde realiza sus compras?,13,brown,0,8,8,8,0,6,6,6,28.77795420000075,,,,,,,,,,,,,,,28.75535950000085,28.77795420000075,28.853216400000747,070615,001,2024-04-28_12h36.45.408,ArchivoPrueba,2024.1.1,None,2024-04-28 12h36.55.819701 -0500,
¿Recuerda alguna situación divertida o interesante que haya experimentado durante el recorrido hacia el lugar de compras?,15,purple,0,8,8,8,0,7,7,7,28.87758759999997,,,,,,,,,,,,,,,28.85402030000114,28.87758759999997,28.953817999999956,070615,001,2024-04-28_12h36.45.408,ArchivoPrueba,2024.1.1,None,2024-04-28 12h36.55.819701 -0500,
 ¿Recuerda qué es lo primero que ve al llegar al lugar donde realiza sus compras?,17,green,0,8,8,8,0,8,8,8,28.97766320000119,,,,,,,,,,,,,,,28.95452000000114,28.97766320000119,29.054009900000892,070615,001,2024-04-28_12h36.45.408,ArchivoPrueba,2024.1.1,None,2024-04-28 12h36.55.819701 -0500,
¿Recuerda el recorrido desde su residencia hasta el centro de resonancia magnética?,19,red,0,8,8,8,0,9,9,9,29.07813420000093,,,,,,,,,,,,,,,29.054984800000966,29.07813420000093,29.153952300001038,070615,001,2024-04-28_12h36.45.408,ArchivoPrueba,2024.1.1,None,2024-04-28 12h36.55.819701 -0500,
None,21,white,0,8,8,8,0,10,10,10,29.177517800000714,,,,,,,,,,,,,,,29.15480320000097,29.177517800000714,29.253785200000493,070615,001,2024-04-28_12h36.45.408,ArchivoPrueba,2024.1.1,None,2024-04-28 12h36.55.819701 -0500,
None,23,blue,0,8,8,8,0,11,11,11,29.277309400000377,,,,,,,,,,,,,,,29.254705100000137,29.277309400000377,29.352819100000488,070615,001,2024-04-28_12h36.45.408,ArchivoPrueba,2024.1.1,None,2024-04-28 12h36.55.819701 -0500,
None,25,yellow,0,8,8,8,0,12,12,12,29.377261000001454,,,,,,,,,,,,,,,29.353548500001125,29.377261000001454,29.4537831000016,070615,001,2024-04-28_12h36.45.408,ArchivoPrueba,2024.1.1,None,2024-04-28 12h36.55.819701 -0500,
None,27,orange,0,8,8,8,0,13,13,13,29.47734720000153,,,,,,,,,,,,,,,29.454627800001617,29.47734720000153,29.55427680000139,070615,001,2024-04-28_12h36.45.408,ArchivoPrueba,2024.1.1,None,2024-04-28 12h36.55.819701 -0500,
None,29,brown,0,8,8,8,0,14,14,14,29.57709700000123,,,,,,,,,,,,,,,29.555286400000114,29.57709700000123,29.65375170000152,070615,001,2024-04-28_12h36.45.408,ArchivoPrueba,2024.1.1,None,2024-04-28 12h36.55.819701 -0500,
None,31,purple,0,8,8,8,0,15,15,15,29.676974100000734,,,,,,,,,,,,,,,29.65460780000103,29.676974100000734,29.753620400000727,070615,001,2024-04-28_12h36.45.408,ArchivoPrueba,2024.1.1,None,2024-04-28 12h36.55.819701 -0500,
None,33,green,0,8,8,8,0,16,16,16,29.776953700000377,,,,,,,,,,,,,,,29.754572400001052,29.776953700000377,29.853115900001285,070615,001,2024-04-28_12h36.45.408,ArchivoPrueba,2024.1.1,None,2024-04-28 12h36.55.819701 -0500,
None,35,red,0,8,8,8,0,17,17,17,29.87695840000015,,,,,,,,,,,,,,,29.853913200000534,29.87695840000015,29.953209799999968,070615,001,2024-04-28_12h36.45.408,ArchivoPrueba,2024.1.1,None,2024-04-28 12h36.55.819701 -0500,
None,37,white,0,8,8,8,0,18,18,18,29.977124000000913,,,,,,,,,,,,,,,29.95402930000091,29.977124000000913,30.053291600001103,070615,001,2024-04-28_12h36.45.408,ArchivoPrueba,2024.1.1,None,2024-04-28 12h36.55.819701 -0500,
None,39,blue,0,8,8,8,0,19,19,19,30.09342160000051,,,,,,,,,,,,,,,30.05434200000127,30.09342160000051,30.136644800000795,070615,001,2024-04-28_12h36.45.408,ArchivoPrueba,2024.1.1,None,2024-04-28 12h36.55.819701 -0500,
 ¿Recuerda qué es lo primero que ve al llegar al lugar donde realiza sus compras?,17,green,0,8,8,8,,,,,,,,,,,,,,,,,,,,,,,070615,001,2024-04-28_12h36.45.408,ArchivoPrueba,2024.1.1,None,2024-04-28 12h36.55.819701 -0500,
¿Recuerda el recorrido que realiza desde su cama hasta la cocina de su residencia?,1,green,0,9,9,9,0,0,0,0,31.209110100000544,,,,,,,,,,,,30.138026399999944,30.17691940000077,31.153098700000555,31.180116800000178,31.209110100000544,31.252142500001355,070615,001,2024-04-28_12h36.45.408,ArchivoPrueba,2024.1.1,None,2024-04-28 12h36.55.819701 -0500,
¿Recuerda el trayecto que hace desde su casa hasta su lugar de trabajo?,3,red,0,9,9,9,0,1,1,1,31.27576990000125,,,,,,,,,,,,,,,31.25318040000093,31.27576990000125,31.352490600000237,070615,001,2024-04-28_12h36.45.408,ArchivoPrueba,2024.1.1,None,2024-04-28 12h36.55.819701 -0500,
¿Recuerda  algún inconveniente que ha  experimentado en el camino de su residencia a su lugar de trabajo?,5,white,0,9,9,9,0,2,2,2,31.37580980000166,,,,,,,,,,,,,,,31.35345580000103,31.37580980000166,31.45132780000131,070615,001,2024-04-28_12h36.45.408,ArchivoPrueba,2024.1.1,None,2024-04-28 12h36.55.819701 -0500,
¿Recuerda si hay algún lugar u objeto en su camino hacia el trabajo que le llame la atención?,7,blue,0,9,9,9,0,3,3,3,31.475260799999887,,,,,,,,,,,,,,,31.45207980000123,31.475260799999887,31.551510100000087,070615,001,2024-04-28_12h36.45.408,ArchivoPrueba,2024.1.1,None,2024-04-28 12h36.55.819701 -0500,
" ¿Recuerda el recorrido desde la entrada de su lugar de trabajo hasta su oficina, donde realiza sus funciones?",9,yellow,0,9,9,9,0,4,4,4,31.575231700000586,,,,,,,,,,,,,,,31.55233430000044,31.575231700000586,31.65253340000163,070615,001,2024-04-28_12h36.45.408,ArchivoPrueba,2024.1.1,None,2024-04-28 12h36.55.819701 -0500,
¿Recuerda alguna actividad que realice durante los viajes de regreso a casa desde el trabajo para relajarse?,11,orange,0,9,9,9,0,5,5,5,31.675101700000596,,,,,,,,,,,,,,,31.653469200000472,31.675101700000596,31.7518041000003,070615,001,2024-04-28_12h36.45.408,ArchivoPrueba,2024.1.1,None,2024-04-28 12h36.55.819701 -0500,
¿Recuerda el trayecto que realiza desde su casa hasta el lugar donde realiza sus compras?,13,brown,0,9,9,9,0,6,6,6,31.775114800000665,,,,,,,,,,,,,,,31.7526609000015,31.775114800000665,31.852068700000018,070615,001,2024-04-28_12h36.45.408,ArchivoPrueba,2024.1.1,None,2024-04-28 12h36.55.819701 -0500,
¿Recuerda alguna situación divertida o interesante que haya experimentado durante el recorrido hacia el lugar de compras?,15,purple,0,9,9,9,0,7,7,7,31.874951100000544,,,,,,,,,,,,,,,31.853031100001317,31.874951100000544,31.952005800001643,070615,001,2024-04-28_12h36.45.408,ArchivoPrueba,2024.1.1,None,2024-04-28 12h36.55.819701 -0500,
 ¿Recuerda qué es lo primero que ve al llegar al lugar donde realiza sus compras?,17,green,0,9,9,9,0,8,8,8,31.975284200001624,,,,,,,,,,,,,,,31.95285160000094,31.975284200001624,32.053171600000496,070615,001,2024-04-28_12h36.45.408,ArchivoPrueba,2024.1.1,None,2024-04-28 12h36.55.819701 -0500,
¿Recuerda el recorrido desde su residencia hasta el centro de resonancia magnética?,19,red,0,9,9,9,0,9,9,9,32.09171240000069,,,,,,,,,,,,,,,32.05448940000133,32.09171240000069,32.168225299999904,070615,001,2024-04-28_12h36.45.408,ArchivoPrueba,2024.1.1,None,2024-04-28 12h36.55.819701 -0500,
None,21,white,0,9,9,9,0,10,10,10,32.19138120000025,,,,,,,,,,,,,,,32.16918930000065,32.19138120000025,32.26834150000104,070615,001,2024-04-28_12h36.45.408,ArchivoPrueba,2024.1.1,None,2024-04-28 12h36.55.819701 -0500,
None,23,blue,0,9,9,9,0,11,11,11,32.291482700000415,,,,,,,,,,,,,,,32.26935780000167,32.291482700000415,32.37092650000159,070615,001,2024-04-28_12h36.45.408,ArchivoPrueba,2024.1.1,None,2024-04-28 12h36.55.819701 -0500,
None,25,yellow,0,9,9,9,0,12,12,12,32.40809430000081,,,,,,,,,,,,,,,32.37263710000116,32.40809430000081,32.45013150000159,070615,001,2024-04-28_12h36.45.408,ArchivoPrueba,2024.1.1,None,2024-04-28 12h36.55.819701 -0500,
None,27,orange,0,9,9,9,0,13,13,13,32.474408300000505,,,,,,,,,,,,,,,32.450844300001336,32.474408300000505,32.55120150000039,070615,001,2024-04-28_12h36.45.408,ArchivoPrueba,2024.1.1,None,2024-04-28 12h36.55.819701 -0500,
None,29,brown,0,9,9,9,0,14,14,14,32.57430030000069,,,,,,,,,,,,,,,32.551964000000225,32.57430030000069,32.65082790000088,070615,001,2024-04-28_12h36.45.408,ArchivoPrueba,2024.1.1,None,2024-04-28 12h36.55.819701 -0500,
None,31,purple,0,9,9,9,0,15,15,15,32.674554700000954,,,,,,,,,,,,,,,32.651794400000654,32.674554700000954,32.75108750000072,070615,001,2024-04-28_12h36.45.408,ArchivoPrueba,2024.1.1,None,2024-04-28 12h36.55.819701 -0500,
None,33,green,0,9,9,9,0,16,16,16,32.774496,,,,,,,,,,,,,,,32.75189590000082,32.774496,32.8512165000011,070615,001,2024-04-28_12h36.45.408,ArchivoPrueba,2024.1.1,None,2024-04-28 12h36.55.819701 -0500,
None,35,red,0,9,9,9,0,17,17,17,32.874250900000334,,,,,,,,,,,,,,,32.8521053000004,32.874250900000334,32.95172850000017,070615,001,2024-04-28_12h36.45.408,ArchivoPrueba,2024.1.1,None,2024-04-28 12h36.55.819701 -0500,
None,37,white,0,9,9,9,0,18,18,18,32.97410690000106,,,,,,,,,,,,,,,32.95276220000051,32.97410690000106,33.050732400000925,070615,001,2024-04-28_12h36.45.408,ArchivoPrueba,2024.1.1,None,2024-04-28 12h36.55.819701 -0500,
None,39,blue,0,9,9,9,0,19,19,19,33.074244200000976,,,,,,,,,,,,,,,33.051614700001664,33.074244200000976,33.15024520000043,070615,001,2024-04-28_12h36.45.408,ArchivoPrueba,2024.1.1,None,2024-04-28 12h36.55.819701 -0500,
¿Recuerda el recorrido desde su residencia hasta el centro de resonancia magnética?,19,red,0,9,9,9,,,,,,,,,,,,,,,,,,,,,,,070615,001,2024-04-28_12h36.45.408,ArchivoPrueba,2024.1.1,None,2024-04-28 12h36.55.819701 -0500,
¿Recuerda el recorrido que realiza desde su cama hasta la cocina de su residencia?,1,green,0,10,10,10,0,0,0,0,34.2731203000003,,,,,,,,,,,,33.151789600000484,33.19106330000068,34.16325810000126,34.23446960000001,,34.24643090000063,070615,001,2024-04-28_12h36.45.408,ArchivoPrueba,2024.1.1,None,2024-04-28 12h36.55.819701 -0500,
¿Recuerda el trayecto que hace desde su casa hasta su lugar de trabajo?,3,red,0,10,10,10,0,1,1,1,34.2731203000003,,,,,,,,,,,,,,,34.24732800000129,34.2731203000003,34.34975510000004,070615,001,2024-04-28_12h36.45.408,ArchivoPrueba,2024.1.1,None,2024-04-28 12h36.55.819701 -0500,
¿Recuerda  algún inconveniente que ha  experimentado en el camino de su residencia a su lugar de trabajo?,5,white,0,10,10,10,0,2,2,2,34.39039550000052,,,,,,,,,,,,,,,34.35082870000042,34.39039550000052,34.45392650000031,070615,001,2024-04-28_12h36.45.408,ArchivoPrueba,2024.1.1,None,2024-04-28 12h36.55.819701 -0500,
¿Recuerda si hay algún lugar u objeto en su camino hacia el trabajo que le llame la atención?,7,blue,0,10,10,10,0,3,3,3,34.48969820000093,,,,,,,,,,,,,,,34.45542270000078,34.48969820000093,34.53883250000035,070615,001,2024-04-28_12h36.45.408,ArchivoPrueba,2024.1.1,None,2024-04-28 12h36.55.819701 -0500,
" ¿Recuerda el recorrido desde la entrada de su lugar de trabajo hasta su oficina, donde realiza sus funciones?",9,yellow,0,10,10,10,0,4,4,4,34.573533300001145,,,,,,,,,,,,,,,34.540785800001686,34.573533300001145,34.65633170000001,070615,001,2024-04-28_12h36.45.408,ArchivoPrueba,2024.1.1,None,2024-04-28 12h36.55.819701 -0500,
¿Recuerda alguna actividad que realice durante los viajes de regreso a casa desde el trabajo para relajarse?,11,orange,0,10,10,10,0,5,5,5,34.690401400001065,,,,,,,,,,,,,,,34.657384100000854,34.690401400001065,34.74006720000034,070615,001,2024-04-28_12h36.45.408,ArchivoPrueba,2024.1.1,None,2024-04-28 12h36.55.819701 -0500,
¿Recuerda el trayecto que realiza desde su casa hasta el lugar donde realiza sus compras?,13,brown,0,10,10,10,0,6,6,6,34.773206000001665,,,,,,,,,,,,,,,34.74113480000051,34.773206000001665,34.85323400000016,070615,001,2024-04-28_12h36.45.408,ArchivoPrueba,2024.1.1,None,2024-04-28 12h36.55.819701 -0500,
¿Recuerda alguna situación divertida o interesante que haya experimentado durante el recorrido hacia el lugar de compras?,15,purple,0,10,10,10,0,7,7,7,34.889538500001436,,,,,,,,,,,,,,,34.85479010000017,34.889538500001436,34.93729850000091,070615,001,2024-04-28_12h36.45.408,ArchivoPrueba,2024.1.1,None,2024-04-28 12h36.55.819701 -0500,
 ¿Recuerda qué es lo primero que ve al llegar al lugar donde realiza sus compras?,17,green,0,10,10,10,0,8,8,8,34.97271450000153,,,,,,,,,,,,,,,34.93833280000035,34.97271450000153,35.05273390000002,070615,001,2024-04-28_12h36.45.408,ArchivoPrueba,2024.1.1,None,2024-04-28 12h36.55.819701 -0500,
¿Recuerda el recorrido desde su residencia hasta el centro de resonancia magnética?,19,red,0,10,10,10,0,9,9,9,35.08997129999989,,,,,,,,,,,,,,,35.05453210000087,35.08997129999989,35.13751920000141,070615,001,2024-04-28_12h36.45.408,ArchivoPrueba,2024.1.1,None,2024-04-28 12h36.55.819701 -0500,
None,21,white,0,10,10,10,0,10,10,10,35.17267040000115,,,,,,,,,,,,,,,35.13863710000078,35.17267040000115,35.25062740000067,070615,001,2024-04-28_12h36.45.408,ArchivoPrueba,2024.1.1,None,2024-04-28 12h36.55.819701 -0500,
None,23,blue,0,10,10,10,0,11,11,11,35.28914320000149,,,,,,,,,,,,,,,35.25191249999989,35.28914320000149,35.36693820000073,070615,001,2024-04-28_12h36.45.408,ArchivoPrueba,2024.1.1,None,2024-04-28 12h36.55.819701 -0500,
None,25,yellow,0,10,10,10,0,12,12,12,35.40628629999992,,,,,,,,,,,,,,,35.36793410000064,35.40628629999992,35.4532650000001,070615,001,2024-04-28_12h36.45.408,ArchivoPrueba,2024.1.1,None,2024-04-28 12h36.55.819701 -0500,
None,27,orange,0,10,10,10,0,13,13,13,35.489300500001264,,,,,,,,,,,,,,,35.454799700000876,35.489300500001264,35.57457510000131,070615,001,2024-04-28_12h36.45.408,ArchivoPrueba,2024.1.1,None,2024-04-28 12h36.55.819701 -0500,
None,29,brown,0,10,10,10,0,14,14,14,35.60590469999988,,,,,,,,,,,,,,,35.57564989999992,35.60590469999988,35.65545440000096,070615,001,2024-04-28_12h36.45.408,ArchivoPrueba,2024.1.1,None,2024-04-28 12h36.55.819701 -0500,
None,31,purple,0,10,10,10,0,15,15,15,35.68903769999997,,,,,,,,,,,,,,,35.65654429999995,35.68903769999997,35.739913200000956,070615,001,2024-04-28_12h36.45.408,ArchivoPrueba,2024.1.1,None,2024-04-28 12h36.55.819701 -0500,
None,33,green,0,10,10,10,0,16,16,16,35.77230520000012,,,,,,,,,,,,,,,35.7414271000016,35.77230520000012,35.83698050000021,070615,001,2024-04-28_12h36.45.408,ArchivoPrueba,2024.1.1,None,2024-04-28 12h36.55.819701 -0500,
None,35,red,0,10,10,10,0,17,17,17,35.87254750000102,,,,,,,,,,,,,,,35.838594300001205,35.87254750000102,35.95499840000048,070615,001,2024-04-28_12h36.45.408,ArchivoPrueba,2024.1.1,None,2024-04-28 12h36.55.819701 -0500,
None,37,white,0,10,10,10,0,18,18,18,35.988812999999936,,,,,,,,,,,,,,,35.95616240000163,35.988812999999936,36.03810800000065,070615,001,2024-04-28_12h36.45.408,ArchivoPrueba,2024.1.1,None,2024-04-28 12h36.55.819701 -0500,
None,39,blue,0,10,10,10,0,19,19,19,36.071784200001275,,,,,,,,,,,,,,,36.03937390000101,36.071784200001275,36.154862200000935,070615,001,2024-04-28_12h36.45.408,ArchivoPrueba,2024.1.1,None,2024-04-28 12h36.55.819701 -0500,
None,21,white,0,10,10,10,,,,,,,,,,,,,,,,,,,,,,,070615,001,2024-04-28_12h36.45.408,ArchivoPrueba,2024.1.1,None,2024-04-28 12h36.55.819701 -0500,
¿Recuerda el recorrido que realiza desde su cama hasta la cocina de su residencia?,1,green,0,11,11,11,0,0,0,0,37.22086880000097,,,,,,,,,,,,36.15637990000141,36.205116900000576,37.15272770000047,37.18720360000043,37.22086880000097,37.26799950000168,070615,001,2024-04-28_12h36.45.408,ArchivoPrueba,2024.1.1,None,2024-04-28 12h36.55.819701 -0500,
¿Recuerda el trayecto que hace desde su casa hasta su lugar de trabajo?,3,red,0,11,11,11,0,1,1,1,37.3039632,,,,,,,,,,,,,,,37.26912820000143,37.3039632,37.349302500000704,070615,001,2024-04-28_12h36.45.408,ArchivoPrueba,2024.1.1,None,2024-04-28 12h36.55.819701 -0500,
¿Recuerda  algún inconveniente que ha  experimentado en el camino de su residencia a su lugar de trabajo?,5,white,0,11,11,11,0,2,2,2,37.387970300000234,,,,,,,,,,,,,,,37.350848200001565,37.387970300000234,37.45239560000118,070615,001,2024-04-28_12h36.45.408,ArchivoPrueba,2024.1.1,None,2024-04-28 12h36.55.819701 -0500,
¿Recuerda si hay algún lugar u objeto en su camino hacia el trabajo que le llame la atención?,7,blue,0,11,11,11,0,3,3,3,37.48758770000131,,,,,,,,,,,,,,,37.453678500000024,37.48758770000131,37.537048300000606,070615,001,2024-04-28_12h36.45.408,ArchivoPrueba,2024.1.1,None,2024-04-28 12h36.55.819701 -0500,
" ¿Recuerda el recorrido desde la entrada de su lugar de trabajo hasta su oficina, donde realiza sus funciones?",9,yellow,0,11,11,11,0,4,4,4,37.57042840000031,,,,,,,,,,,,,,,37.53820750000159,37.57042840000031,37.650136199999906,070615,001,2024-04-28_12h36.45.408,ArchivoPrueba,2024.1.1,None,2024-04-28 12h36.55.819701 -0500,
¿Recuerda alguna actividad que realice durante los viajes de regreso a casa desde el trabajo para relajarse?,11,orange,0,11,11,11,0,5,5,5,37.68709430000126,,,,,,,,,,,,,,,37.65184650000083,37.68709430000126,37.766748400001234,070615,001,2024-04-28_12h36.45.408,ArchivoPrueba,2024.1.1,None,2024-04-28 12h36.55.819701 -0500,
¿Recuerda el trayecto que realiza desde su casa hasta el lugar donde realiza sus compras?,13,brown,0,11,11,11,0,6,6,6,37.80380310000146,,,,,,,,,,,,,,,37.768709100000706,37.80380310000146,37.85072030000083,070615,001,2024-04-28_12h36.45.408,ArchivoPrueba,2024.1.1,None,2024-04-28 12h36.55.819701 -0500,
¿Recuerda alguna situación divertida o interesante que haya experimentado durante el recorrido hacia el lugar de compras?,15,purple,0,11,11,11,0,7,7,7,37.886770800001614,,,,,,,,,,,,,,,37.85214300000007,37.886770800001614,37.96809060000123,070615,001,2024-04-28_12h36.45.408,ArchivoPrueba,2024.1.1,None,2024-04-28 12h36.55.819701 -0500,
 ¿Recuerda qué es lo primero que ve al llegar al lugar donde realiza sus compras?,17,green,0,11,11,11,0,8,8,8,38.003400800000236,,,,,,,,,,,,,,,37.96962000000167,38.003400800000236,38.05201510000006,070615,001,2024-04-28_12h36.45.408,ArchivoPrueba,2024.1.1,None,2024-04-28 12h36.55.819701 -0500,
¿Recuerda el recorrido desde su residencia hasta el centro de resonancia magnética?,19,red,0,11,11,11,0,9,9,9,38.08705590000136,,,,,,,,,,,,,,,38.05323970000063,38.08705590000136,38.16658780000034,070615,001,2024-04-28_12h36.45.408,ArchivoPrueba,2024.1.1,None,2024-04-28 12h36.55.819701 -0500,
None,21,white,0,11,11,11,0,10,10,10,38.20354690000022,,,,,,,,,,,,,,,38.16827120000016,38.20354690000022,38.24922460000016,070615,001,2024-04-28_12h36.45.408,ArchivoPrueba,2024.1.1,None,2024-04-28 12h36.55.819701 -0500,
None,23,blue,0,11,11,11,0,11,11,11,38.28646430000117,,,,,,,,,,,,,,,38.251083400000425,38.28646430000117,38.36704559999998,070615,001,2024-04-28_12h36.45.408,ArchivoPrueba,2024.1.1,None,2024-04-28 12h36.55.819701 -0500,
None,25,yellow,0,11,11,11,0,12,12,12,38.403801000000385,,,,,,,,,,,,,,,38.36842030000116,38.403801000000385,38.45075480000014,070615,001,2024-04-28_12h36.45.408,ArchivoPrueba,2024.1.1,None,2024-04-28 12h36.55.819701 -0500,
None,27,orange,0,11,11,11,0,13,13,13,38.486464600000545,,,,,,,,,,,,,,,38.45198260000143,38.486464600000545,38.566497900001195,070615,001,2024-04-28_12h36.45.408,ArchivoPrueba,2024.1.1,None,2024-04-28 12h36.55.819701 -0500,
None,29,brown,0,11,11,11,0,14,14,14,38.60285440000007,,,,,,,,,,,,,,,38.56793430000107,38.60285440000007,38.64999119999993,070615,001,2024-04-28_12h36.45.408,ArchivoPrueba,2024.1.1,None,2024-04-28 12h36.55.819701 -0500,
None,31,purple,0,11,11,11,0,15,15,15,38.68643890000021,,,,,,,,,,,,,,,38.65144370000053,38.68643890000021,38.76579200000015,070615,001,2024-04-28_12h36.45.408,ArchivoPrueba,2024.1.1,None,2024-04-28 12h36.55.819701 -0500,
None,33,green,0,11,11,11,0,16,16,16,38.802686000000904,,,,,,,,,,,,,,,38.76749420000124,38.802686000000904,38.84918390000166,070615,001,2024-04-28_12h36.45.408,ArchivoPrueba,2024.1.1,None,2024-04-28 12h36.55.819701 -0500,
None,35,red,0,11,11,11,0,17,17,17,38.886130400000184,,,,,,,,,,,,,,,38.850753100001384,38.886130400000184,38.96969320000062,070615,001,2024-04-28_12h36.45.408,ArchivoPrueba,2024.1.1,None,2024-04-28 12h36.55.819701 -0500,
None,37,white,0,11,11,11,0,18,18,18,39.0027996000008,,,,,,,,,,,,,,,38.97090380000009,39.0027996000008,39.05275729999994,070615,001,2024-04-28_12h36.45.408,ArchivoPrueba,2024.1.1,None,2024-04-28 12h36.55.819701 -0500,
None,39,blue,0,11,11,11,0,19,19,19,39.086050500000056,,,,,,,,,,,,,,,39.05417380000108,39.086050500000056,39.16942910000034,070615,001,2024-04-28_12h36.45.408,ArchivoPrueba,2024.1.1,None,2024-04-28 12h36.55.819701 -0500,
None,23,blue,0,11,11,11,,,,,,,,,,,,,,,,,,,,,,,070615,001,2024-04-28_12h36.45.408,ArchivoPrueba,2024.1.1,None,2024-04-28 12h36.55.819701 -0500,
¿Recuerda el recorrido que realiza desde su cama hasta la cocina de su residencia?,1,green,0,12,12,12,0,0,0,0,40.21813900000052,,,,,,,,,,,,39.17107890000079,39.21946449999996,40.16496260000167,40.19455590000143,40.21813900000052,40.265886000001046,070615,001,2024-04-28_12h36.45.408,ArchivoPrueba,2024.1.1,None,2024-04-28 12h36.55.819701 -0500,
¿Recuerda el trayecto que hace desde su casa hasta su lugar de trabajo?,3,red,0,12,12,12,0,1,1,1,40.30190890000085,,,,,,,,,,,,,,,40.26709389999996,40.30190890000085,40.347917099999904,070615,001,2024-04-28_12h36.45.408,ArchivoPrueba,2024.1.1,None,2024-04-28 12h36.55.819701 -0500,
¿Recuerda  algún inconveniente que ha  experimentado en el camino de su residencia a su lugar de trabajo?,5,white,0,12,12,12,0,2,2,2,40.38493180000114,,,,,,,,,,,,,,,40.349694600001385,40.38493180000114,40.46579080000083,070615,001,2024-04-28_12h36.45.408,ArchivoPrueba,2024.1.1,None,2024-04-28 12h36.55.819701 -0500,
¿Recuerda si hay algún lugar u objeto en su camino hacia el trabajo que le llame la atención?,7,blue,0,12,12,12,0,3,3,3,40.501256400000784,,,,,,,,,,,,,,,40.46723689999999,40.501256400000784,40.54773320000095,070615,001,2024-04-28_12h36.45.408,ArchivoPrueba,2024.1.1,None,2024-04-28 12h36.55.819701 -0500,
" ¿Recuerda el recorrido desde la entrada de su lugar de trabajo hasta su oficina, donde realiza sus funciones?",9,yellow,0,12,12,12,0,4,4,4,40.58442390000164,,,,,,,,,,,,,,,40.550207400001455,40.58442390000164,40.66650160000063,070615,001,2024-04-28_12h36.45.408,ArchivoPrueba,2024.1.1,None,2024-04-28 12h36.55.819701 -0500,
¿Recuerda alguna actividad que realice durante los viajes de regreso a casa desde el trabajo para relajarse?,11,orange,0,12,12,12,0,5,5,5,40.700980900001014,,,,,,,,,,,,,,,40.66798050000034,40.700980900001014,40.751298700000916,070615,001,2024-04-28_12h36.45.408,ArchivoPrueba,2024.1.1,None,2024-04-28 12h36.55.819701 -0500,
¿Recuerda el trayecto que realiza desde su casa hasta el lugar donde realiza sus compras?,13,brown,0,12,12,12,0,6,6,6,40.78463499999998,,,,,,,,,,,,,,,40.75247870000021,40.78463499999998,40.864070300000094,070615,001,2024-04-28_12h36.45.408,ArchivoPrueba,2024.1.1,None,2024-04-28 12h36.55.819701 -0500,
¿Recuerda alguna situación divertida o interesante que haya experimentado durante el recorrido hacia el lugar de compras?,15,purple,0,12,12,12,0,7,7,7,40.90109230000053,,,,,,,,,,,,,,,40.86563000000024,40.90109230000053,40.9506919000014,070615,001,2024-04-28_12h36.45.408,ArchivoPrueba,2024.1.1,None,2024-04-28 12h36.55.819701 -0500,
 ¿Recuerda qué es lo primero que ve al llegar al lugar donde realiza sus compras?,17,green,0,12,12,12,0,8,8,8,40.98423510000066,,,,,,,,,,,,,,,40.951596300001256,40.98423510000066,41.067910499999925,070615,001,2024-04-28_12h36.45.408,ArchivoPrueba,2024.1.1,None,2024-04-28 12h36.55.819701 -0500,
¿Recuerda el recorrido desde su residencia hasta el centro de resonancia magnética?,19,red,0,12,12,12,0,9,9,9,41.100635100001455,,,,,,,,,,,,,,,41.069135700001425,41.100635100001455,41.14746330000162,070615,001,2024-04-28_12h36.45.408,ArchivoPrueba,2024.1.1,None,2024-04-28 12h36.55.819701 -0500,
None,21,white,0,12,12,12,0,10,10,10,41.18392010000025,,,,,,,,,,,,,,,41.14909710000029,41.18392010000025,41.26213600000119,070615,001,2024-04-28_12h36.45.408,ArchivoPrueba,2024.1.1,None,2024-04-28 12h36.55.819701 -0500,
None,23,blue,0,12,12,12,0,11,11,11,41.30092620000141,,,,,,,,,,,,,,,41.26307380000071,41.30092620000141,41.34724970000025,070615,001,2024-04-28_12h36.45.408,ArchivoPrueba,2024.1.1,None,2024-04-28 12h36.55.819701 -0500,
None,25,yellow,0,12,12,12,0,12,12,12,41.38424440000017,,,,,,,,,,,,,,,41.34893360000024,41.38424440000017,41.44879460000084,070615,001,2024-04-28_12h36.45.408,ArchivoPrueba,2024.1.1,None,2024-04-28 12h36.55.819701 -0500,
None,27,orange,0,12,12,12,0,13,13,13,41.483852400000615,,,,,,,,,,,,,,,41.44997570000123,41.483852400000615,41.56449470000007,070615,001,2024-04-28_12h36.45.408,ArchivoPrueba,2024.1.1,None,2024-04-28 12h36.55.819701 -0500,
None,29,brown,0,12,12,12,0,14,14,14,41.600307700000485,,,,,,,,,,,,,,,41.56573500000013,41.600307700000485,41.64822460000141,070615,001,2024-04-28_12h36.45.408,ArchivoPrueba,2024.1.1,None,2024-04-28 12h36.55.819701 -0500,
None,31,purple,0,12,12,12,0,15,15,15,41.683589199999915,,,,,,,,,,,,,,,41.649404499999946,41.683589199999915,41.76145960000031,070615,001,2024-04-28_12h36.45.408,ArchivoPrueba,2024.1.1,None,2024-04-28 12h36.55.819701 -0500,
None,33,green,0,12,12,12,0,16,16,16,41.80016710000018,,,,,,,,,,,,,,,41.76298250000036,41.80016710000018,41.847391700001026,070615,001,2024-04-28_12h36.45.408,ArchivoPrueba,2024.1.1,None,2024-04-28 12h36.55.819701 -0500,
None,35,red,0,12,12,12,0,17,17,17,41.88330960000167,,,,,,,,,,,,,,,41.84855130000142,41.88330960000167,41.96360780000032,070615,001,2024-04-28_12h36.45.408,ArchivoPrueba,2024.1.1,None,2024-04-28 12h36.55.819701 -0500,
None,37,white,0,12,12,12,0,18,18,18,41.999964600001476,,,,,,,,,,,,,,,41.9651386000005,41.999964600001476,42.04641680000168,070615,001,2024-04-28_12h36.45.408,ArchivoPrueba,2024.1.1,None,2024-04-28 12h36.55.819701 -0500,
None,39,blue,0,12,12,12,0,19,19,19,42.08355830000073,,,,,,,,,,,,,,,42.04776270000002,42.08355830000073,42.16347830000086,070615,001,2024-04-28_12h36.45.408,ArchivoPrueba,2024.1.1,None,2024-04-28 12h36.55.819701 -0500,
None,25,yellow,0,12,12,12,,,,,,,,,,,,,,,,,,,,,,,070615,001,2024-04-28_12h36.45.408,ArchivoPrueba,2024.1.1,None,2024-04-28 12h36.55.819701 -0500,
¿Recuerda el recorrido que realiza desde su cama hasta la cocina de su residencia?,1,green,0,13,13,13,0,0,0,0,43.215579500001695,,,,,,,,,,,,42.165233000001535,42.20012070000121,43.14803180000126,43.180967500000406,43.215579500001695,43.261789500000305,070615,001,2024-04-28_12h36.45.408,ArchivoPrueba,2024.1.1,None,2024-04-28 12h36.55.819701 -0500,
¿Recuerda el trayecto que hace desde su casa hasta su lugar de trabajo?,3,red,0,13,13,13,0,1,1,1,43.29876460000014,,,,,,,,,,,,,,,43.263558399999965,43.29876460000014,43.34519850000106,070615,001,2024-04-28_12h36.45.408,ArchivoPrueba,2024.1.1,None,2024-04-28 12h36.55.819701 -0500,
¿Recuerda  algún inconveniente que ha  experimentado en el camino de su residencia a su lugar de trabajo?,5,white,0,13,13,13,0,2,2,2,43.382599200000186,,,,,,,,,,,,,,,43.34686300000067,43.382599200000186,43.44611050000094,070615,001,2024-04-28_12h36.45.408,ArchivoPrueba,2024.1.1,None,2024-04-28 12h36.55.819701 -0500,
¿Recuerda si hay algún lugar u objeto en su camino hacia el trabajo que le llame la atención?,7,blue,0,13,13,13,0,3,3,3,43.482024800001454,,,,,,,,,,,,,,,43.44774570000118,43.482024800001454,43.56153230000018,070615,001,2024-04-28_12h36.45.408,ArchivoPrueba,2024.1.1,None,2024-04-28 12h36.55.819701 -0500,
" ¿Recuerda el recorrido desde la entrada de su lugar de trabajo hasta su oficina, donde realiza sus funciones?",9,yellow,0,13,13,13,0,4,4,4,43.598530900000696,,,,,,,,,,,,,,,43.56352760000118,43.598530900000696,43.64528820000123,070615,001,2024-04-28_12h36.45.408,ArchivoPrueba,2024.1.1,None,2024-04-28 12h36.55.819701 -0500,
¿Recuerda alguna actividad que realice durante los viajes de regreso a casa desde el trabajo para relajarse?,11,orange,0,13,13,13,0,5,5,5,43.6817460000002,,,,,,,,,,,,,,,43.6468472000015,43.6817460000002,43.75927840000077,070615,001,2024-04-28_12h36.45.408,ArchivoPrueba,2024.1.1,None,2024-04-28 12h36.55.819701 -0500,
¿Recuerda el trayecto que realiza desde su casa hasta el lugar donde realiza sus compras?,13,brown,0,13,13,13,0,6,6,6,43.79862520000097,,,,,,,,,,,,,,,43.76022340000054,43.79862520000097,43.85011410000152,070615,001,2024-04-28_12h36.45.408,ArchivoPrueba,2024.1.1,None,2024-04-28 12h36.55.819701 -0500,
¿Recuerda alguna situación divertida o interesante que haya experimentado durante el recorrido hacia el lugar de compras?,15,purple,0,13,13,13,0,7,7,7,43.881684300000416,,,,,,,,,,,,,,,43.85124790000009,43.881684300000416,43.961482600001546,070615,001,2024-04-28_12h36.45.408,ArchivoPrueba,2024.1.1,None,2024-04-28 12h36.55.819701 -0500,
 ¿Recuerda qué es lo primero que ve al llegar al lugar donde realiza sus compras?,17,green,0,13,13,13,0,8,8,8,43.99853380000059,,,,,,,,,,,,,,,43.962871700001415,43.99853380000059,44.044781700000385,070615,001,2024-04-28_12h36.45.408,ArchivoPrueba,2024.1.1,None,2024-04-28 12h36.55.819701 -0500,
¿Recuerda el recorrido desde su residencia hasta el centro de resonancia magnética?,19,red,0,13,13,13,0,9,9,9,44.0818976999999,,,,,,,,,,,,,,,44.046137700001054,44.0818976999999,44.16176670000095,070615,001,2024-04-28_12h36.45.408,ArchivoPrueba,2024.1.1,None,2024-04-28 12h36.55.819701 -0500,
None,21,white,0,13,13,13,0,10,10,10,44.19819760000064,,,,,,,,,,,,,,,44.16319960000146,44.19819760000064,44.24571450000076,070615,001,2024-04-28_12h36.45.408,ArchivoPrueba,2024.1.1,None,2024-04-28 12h36.55.819701 -0500,
None,23,blue,0,13,13,13,0,11,11,11,44.28134769999997,,,,,,,,,,,,,,,44.24697820000074,44.28134769999997,44.359641300001385,070615,001,2024-04-28_12h36.45.408,ArchivoPrueba,2024.1.1,None,2024-04-28 12h36.55.819701 -0500,
None,25,yellow,0,13,13,13,0,12,12,12,44.398464000001695,,,,,,,,,,,,,,,44.36116140000013,44.398464000001695,44.44262010000057,070615,001,2024-04-28_12h36.45.408,ArchivoPrueba,2024.1.1,None,2024-04-28 12h36.55.819701 -0500,
None,27,orange,0,13,13,13,0,13,13,13,44.48125700000128,,,,,,,,,,,,,,,44.443587100000514,44.48125700000128,44.55995510000139,070615,001,2024-04-28_12h36.45.408,ArchivoPrueba,2024.1.1,None,2024-04-28 12h36.55.819701 -0500,
None,29,brown,0,13,13,13,0,14,14,14,44.59770500000013,,,,,,,,,,,,,,,44.561203500001284,44.59770500000013,44.644624500000646,070615,001,2024-04-28_12h36.45.408,ArchivoPrueba,2024.1.1,None,2024-04-28 12h36.55.819701 -0500,
None,31,purple,0,13,13,13,0,15,15,15,44.680862799999886,,,,,,,,,,,,,,,44.64594290000059,44.680862799999886,44.76127860000088,070615,001,2024-04-28_12h36.45.408,ArchivoPrueba,2024.1.1,None,2024-04-28 12h36.55.819701 -0500,
None,33,green,0,13,13,13,0,16,16,16,44.79755170000135,,,,,,,,,,,,,,,44.76280740000038,44.79755170000135,44.84518950000165,070615,001,2024-04-28_12h36.45.408,ArchivoPrueba,2024.1.1,None,2024-04-28 12h36.55.819701 -0500,
None,35,red,0,13,13,13,0,17,17,17,44.88128920000054,,,,,,,,,,,,,,,44.846341700000266,44.88128920000054,44.96223630000168,070615,001,2024-04-28_12h36.45.408,ArchivoPrueba,2024.1.1,None,2024-04-28 12h36.55.819701 -0500,
None,37,white,0,13,13,13,0,18,18,18,44.99738690000049,,,,,,,,,,,,,,,44.963303300000916,44.99738690000049,45.04374250000001,070615,001,2024-04-28_12h36.45.408,ArchivoPrueba,2024.1.1,None,2024-04-28 12h36.55.819701 -0500,
None,39,blue,0,13,13,13,0,19,19,19,45.081095300000015,,,,,,,,,,,,,,,45.045386900001176,45.081095300000015,45.16101669999989,070615,001,2024-04-28_12h36.45.408,ArchivoPrueba,2024.1.1,None,2024-04-28 12h36.55.819701 -0500,
None,27,orange,0,13,13,13,,,,,,,,,,,,,,,,,,,,,,,070615,001,2024-04-28_12h36.45.408,ArchivoPrueba,2024.1.1,None,2024-04-28 12h36.55.819701 -0500,
¿Recuerda el recorrido que realiza desde su cama hasta la cocina de su residencia?,1,green,0,14,14,14,0,0,0,0,46.21282830000018,,,,,,,,,,,,45.16281960000015,45.19731890000003,46.14383650000127,46.17725539999992,46.21282830000018,46.25945150000007,070615,001,2024-04-28_12h36.45.408,ArchivoPrueba,2024.1.1,None,2024-04-28 12h36.55.819701 -0500,
¿Recuerda el trayecto que hace desde su casa hasta su lugar de trabajo?,3,red,0,14,14,14,0,1,1,1,46.29628330000014,,,,,,,,,,,,,,,46.26111630000014,46.29628330000014,46.34232940000038,070615,001,2024-04-28_12h36.45.408,ArchivoPrueba,2024.1.1,None,2024-04-28 12h36.55.819701 -0500,
¿Recuerda  algún inconveniente que ha  experimentado en el camino de su residencia a su lugar de trabajo?,5,white,0,14,14,14,0,2,2,2,46.379418200000146,,,,,,,,,,,,,,,46.34375170000021,46.379418200000146,46.45924520000153,070615,001,2024-04-28_12h36.45.408,ArchivoPrueba,2024.1.1,None,2024-04-28 12h36.55.819701 -0500,
¿Recuerda si hay algún lugar u objeto en su camino hacia el trabajo que le llame la atención?,7,blue,0,14,14,14,0,3,3,3,46.495907100001205,,,,,,,,,,,,,,,46.460817099999986,46.495907100001205,46.542258200001015,070615,001,2024-04-28_12h36.45.408,ArchivoPrueba,2024.1.1,None,2024-04-28 12h36.55.819701 -0500,
" ¿Recuerda el recorrido desde la entrada de su lugar de trabajo hasta su oficina, donde realiza sus funciones?",9,yellow,0,14,14,14,0,4,4,4,46.57933460000095,,,,,,,,,,,,,,,46.5441692000004,46.57933460000095,46.65923590000057,070615,001,2024-04-28_12h36.45.408,ArchivoPrueba,2024.1.1,None,2024-04-28 12h36.55.819701 -0500,
¿Recuerda alguna actividad que realice durante los viajes de regreso a casa desde el trabajo para relajarse?,11,orange,0,14,14,14,0,5,5,5,46.69597220000105,,,,,,,,,,,,,,,46.66087460000017,46.69597220000105,46.742895000001226,070615,001,2024-04-28_12h36.45.408,ArchivoPrueba,2024.1.1,None,2024-04-28 12h36.55.819701 -0500,
¿Recuerda el trayecto que realiza desde su casa hasta el lugar donde realiza sus compras?,13,brown,0,14,14,14,0,6,6,6,46.77934800000003,,,,,,,,,,,,,,,46.74459019999995,46.77934800000003,46.85983260000103,070615,001,2024-04-28_12h36.45.408,ArchivoPrueba,2024.1.1,None,2024-04-28 12h36.55.819701 -0500,
¿Recuerda alguna situación divertida o interesante que haya experimentado durante el recorrido hacia el lugar de compras?,15,purple,0,14,14,14,0,7,7,7,46.895717700001114,,,,,,,,,,,,,,,46.86130670000057,46.895717700001114,46.94238200000109,070615,001,2024-04-28_12h36.45.408,ArchivoPrueba,2024.1.1,None,2024-04-28 12h36.55.819701 -0500,
 ¿Recuerda qué es lo primero que ve al llegar al lugar donde realiza sus compras?,17,green,0,14,14,14,0,8,8,8,46.978933600001255,,,,,,,,,,,,,,,46.943781500000114,46.978933600001255,47.05858830000034,070615,001,2024-04-28_12h36.45.408,ArchivoPrueba,2024.1.1,None,2024-04-28 12h36.55.819701 -0500,
¿Recuerda el recorrido desde su residencia hasta el centro de resonancia magnética?,19,red,0,14,14,14,0,9,9,9,47.0957742999999,,,,,,,,,,,,,,,47.06070170000021,47.0957742999999,47.140135000001465,070615,001,2024-04-28_12h36.45.408,ArchivoPrueba,2024.1.1,None,2024-04-28 12h36.55.819701 -0500,
None,21,white,0,14,14,14,0,10,10,10,47.179141399999935,,,,,,,,,,,,,,,47.141110300000946,47.179141399999935,47.25816550000127,070615,001,2024-04-28_12h36.45.408,ArchivoPrueba,2024.1.1,None,2024-04-28 12h36.55.819701 -0500,
None,23,blue,0,14,14,14,0,11,11,11,47.29519470000014,,,,,,,,,,,,,,,47.259692800000266,47.29519470000014,47.3401984000011,070615,001,2024-04-28_12h36.45.408,ArchivoPrueba,2024.1.1,None,2024-04-28 12h36.55.819701 -0500,
None,25,yellow,0,14,14,14,0,12,12,12,47.37898490000043,,,,,,,,,,,,,,,47.34122260000004,47.37898490000043,47.45611950000057,070615,001,2024-04-28_12h36.45.408,ArchivoPrueba,2024.1.1,None,2024-04-28 12h36.55.819701 -0500,
None,27,orange,0,14,14,14,0,13,13,13,47.49518030000036,,,,,,,,,,,,,,,47.457667100001345,47.49518030000036,47.54090390000056,070615,001,2024-04-28_12h36.45.408,ArchivoPrueba,2024.1.1,None,2024-04-28 12h36.55.819701 -0500,
None,29,brown,0,14,14,14,0,14,14,14,47.578539800000726,,,,,,,,,,,,,,,47.542670400000134,47.578539800000726,47.657350000001315,070615,001,2024-04-28_12h36.45.408,ArchivoPrueba,2024.1.1,None,2024-04-28 12h36.55.819701 -0500,
None,31,purple,0,14,14,14,0,15,15,15,47.694894100000965,,,,,,,,,,,,,,,47.65838250000161,47.694894100000965,47.740759700000126,070615,001,2024-04-28_12h36.45.408,ArchivoPrueba,2024.1.1,None,2024-04-28 12h36.55.819701 -0500,
None,33,green,0,14,14,14,0,16,16,16,47.77817500000128,,,,,,,,,,,,,,,47.74191520000022,47.77817500000128,47.85886650000066,070615,001,2024-04-28_12h36.45.408,ArchivoPrueba,2024.1.1,None,2024-04-28 12h36.55.819701 -0500,
None,35,red,0,14,14,14,0,17,17,17,47.89488490000076,,,,,,,,,,,,,,,47.86027190000095,47.89488490000076,47.941409700000804,070615,001,2024-04-28_12h36.45.408,ArchivoPrueba,2024.1.1,None,2024-04-28 12h36.55.819701 -0500,
None,37,white,0,14,14,14,0,18,18,18,47.978035800000725,,,,,,,,,,,,,,,47.94291350000094,47.978035800000725,48.060939800001506,070615,001,2024-04-28_12h36.45.408,ArchivoPrueba,2024.1.1,None,2024-04-28 12h36.55.819701 -0500,
None,39,blue,0,14,14,14,0,19,19,19,48.09506230000079,,,,,,,,,,,,,,,48.06269910000083,48.09506230000079,48.14134390000072,070615,001,2024-04-28_12h36.45.408,ArchivoPrueba,2024.1.1,None,2024-04-28 12h36.55.819701 -0500,
None,29,brown,0,14,14,14,,,,,,,,,,,,,,,,,,,,,,,070615,001,2024-04-28_12h36.45.408,ArchivoPrueba,2024.1.1,None,2024-04-28 12h36.55.819701 -0500,
¿Recuerda el recorrido que realiza desde su cama hasta la cocina de su residencia?,1,green,0,15,15,15,0,0,0,0,49.2102945000006,,,,,,,,,,,,48.14331889999994,48.177882700001646,49.15561230000094,49.18790380000064,49.2102945000006,49.25732600000083,070615,001,2024-04-28_12h36.45.408,ArchivoPrueba,2024.1.1,None,2024-04-28 12h36.55.819701 -0500,
¿Recuerda el trayecto que hace desde su casa hasta su lugar de trabajo?,3,red,0,15,15,15,0,1,1,1,49.29380850000052,,,,,,,,,,,,,,,49.258740500001295,49.29380850000052,49.340964500001064,070615,001,2024-04-28_12h36.45.408,ArchivoPrueba,2024.1.1,None,2024-04-28 12h36.55.819701 -0500,
¿Recuerda  algún inconveniente que ha  experimentado en el camino de su residencia a su lugar de trabajo?,5,white,0,15,15,15,0,2,2,2,49.37680300000102,,,,,,,,,,,,,,,49.34212200000002,49.37680300000102,49.4559758000014,070615,001,2024-04-28_12h36.45.408,ArchivoPrueba,2024.1.1,None,2024-04-28 12h36.55.819701 -0500,
¿Recuerda si hay algún lugar u objeto en su camino hacia el trabajo que le llame la atención?,7,blue,0,15,15,15,0,3,3,3,49.49342500000057,,,,,,,,,,,,,,,49.45702310000161,49.49342500000057,49.54144570000062,070615,001,2024-04-28_12h36.45.408,ArchivoPrueba,2024.1.1,None,2024-04-28 12h36.55.819701 -0500,
" ¿Recuerda el recorrido desde la entrada de su lugar de trabajo hasta su oficina, donde realiza sus funciones?",9,yellow,0,15,15,15,0,4,4,4,49.57696230000147,,,,,,,,,,,,,,,49.54257310000139,49.57696230000147,49.65661500000169,070615,001,2024-04-28_12h36.45.408,ArchivoPrueba,2024.1.1,None,2024-04-28 12h36.55.819701 -0500,
¿Recuerda alguna actividad que realice durante los viajes de regreso a casa desde el trabajo para relajarse?,11,orange,0,15,15,15,0,5,5,5,49.69354879999992,,,,,,,,,,,,,,,49.65841890000047,49.69354879999992,49.74114180000106,070615,001,2024-04-28_12h36.45.408,ArchivoPrueba,2024.1.1,None,2024-04-28 12h36.55.819701 -0500,
¿Recuerda el trayecto que realiza desde su casa hasta el lugar donde realiza sus compras?,13,brown,0,15,15,15,0,6,6,6,49.776581900001474,,,,,,,,,,,,,,,49.74242510000113,49.776581900001474,49.86042220000127,070615,001,2024-04-28_12h36.45.408,ArchivoPrueba,2024.1.1,None,2024-04-28 12h36.55.819701 -0500,
¿Recuerda alguna situación divertida o interesante que haya experimentado durante el recorrido hacia el lugar de compras?,15,purple,0,15,15,15,0,7,7,7,49.89366719999998,,,,,,,,,,,,,,,49.86145490000126,49.89366719999998,49.94196120000015,070615,001,2024-04-28_12h36.45.408,ArchivoPrueba,2024.1.1,None,2024-04-28 12h36.55.819701 -0500,
 ¿Recuerda qué es lo primero que ve al llegar al lugar donde realiza sus compras?,17,green,0,15,15,15,0,8,8,8,49.97695680000106,,,,,,,,,,,,,,,49.94339470000159,49.97695680000106,50.05837710000014,070615,001,2024-04-28_12h36.45.408,ArchivoPrueba,2024.1.1,None,2024-04-28 12h36.55.819701 -0500,
¿Recuerda el recorrido desde su residencia hasta el centro de resonancia magnética?,19,red,0,15,15,15,0,9,9,9,50.09352990000116,,,,,,,,,,,,,,,50.06048770000052,50.09352990000116,50.15505050000138,070615,001,2024-04-28_12h36.45.408,ArchivoPrueba,2024.1.1,None,2024-04-28 12h36.55.819701 -0500,
None,21,white,0,15,15,15,0,10,10,10,50.19401130000006,,,,,,,,,,,,,,,50.15621470000042,50.19401130000006,50.279449400000885,070615,001,2024-04-28_12h36.45.408,ArchivoPrueba,2024.1.1,None,2024-04-28 12h36.55.819701 -0500,
None,23,blue,0,15,15,15,0,11,11,11,50.32619630000045,,,,,,,,,,,,,,,50.28092040000047,50.32619630000045,50.34612390000075,070615,001,2024-04-28_12h36.45.408,ArchivoPrueba,2024.1.1,None,2024-04-28 12h36.55.819701 -0500,
None,25,yellow,0,15,15,15,0,12,12,12,50.39347710000038,,,,,,,,,,,,,,,50.34721239999999,50.39347710000038,50.453030300001046,070615,001,2024-04-28_12h36.45.408,ArchivoPrueba,2024.1.1,None,2024-04-28 12h36.55.819701 -0500,
None,27,orange,0,15,15,15,0,13,13,13,50.474635300000955,,,,,,,,,,,,,,,50.45378980000169,50.474635300000955,50.55428160000156,070615,001,2024-04-28_12h36.45.408,ArchivoPrueba,2024.1.1,None,2024-04-28 12h36.55.819701 -0500,
None,29,brown,0,15,15,15,0,14,14,14,50.57787830000052,,,,,,,,,,,,,,,50.55496810000113,50.57787830000052,50.65839150000102,070615,001,2024-04-28_12h36.45.408,ArchivoPrueba,2024.1.1,None,2024-04-28 12h36.55.819701 -0500,
None,31,purple,0,15,15,15,0,15,15,15,50.69191850000061,,,,,,,,,,,,,,,50.65932800000155,50.69191850000061,50.737165900000036,070615,001,2024-04-28_12h36.45.408,ArchivoPrueba,2024.1.1,None,2024-04-28 12h36.55.819701 -0500,
None,33,green,0,15,15,15,0,16,16,16,50.75860190000094,,,,,,,,,,,,,,,50.73791860000165,50.75860190000094,50.842002800000046,070615,001,2024-04-28_12h36.45.408,ArchivoPrueba,2024.1.1,None,2024-04-28 12h36.55.819701 -0500,
None,35,red,0,15,15,15,0,17,17,17,50.875977600000624,,,,,,,,,,,,,,,50.84324970000125,50.875977600000624,50.94228590000057,070615,001,2024-04-28_12h36.45.408,ArchivoPrueba,2024.1.1,None,2024-04-28 12h36.55.819701 -0500,
None,37,white,0,15,15,15,0,18,18,18,50.976040500001545,,,,,,,,,,,,,,,50.944883400001345,50.976040500001545,51.04332730000169,070615,001,2024-04-28_12h36.45.408,ArchivoPrueba,2024.1.1,None,2024-04-28 12h36.55.819701 -0500,
None,39,blue,0,15,15,15,0,19,19,19,51.07577029999993,,,,,,,,,,,,,,,51.0444290000014,51.07577029999993,51.1474771000012,070615,001,2024-04-28_12h36.45.408,ArchivoPrueba,2024.1.1,None,2024-04-28 12h36.55.819701 -0500,
None,31,purple,0,15,15,15,,,,,,,,,,,,,,,,,,,,,,,070615,001,2024-04-28_12h36.45.408,ArchivoPrueba,2024.1.1,None,2024-04-28 12h36.55.819701 -0500,
¿Recuerda el recorrido que realiza desde su cama hasta la cocina de su residencia?,1,green,0,16,16,16,0,0,0,0,52.24123600000166,,,,,,,,,,,,51.148840000001655,51.19205620000139,52.16539400000147,52.212350900001184,52.24123600000166,52.25830640000095,070615,001,2024-04-28_12h36.45.408,ArchivoPrueba,2024.1.1,None,2024-04-28 12h36.55.819701 -0500,
¿Recuerda el trayecto que hace desde su casa hasta su lugar de trabajo?,3,red,0,16,16,16,0,1,1,1,52.291136100000585,,,,,,,,,,,,,,,52.25950010000088,52.291136100000585,52.34192930000063,070615,001,2024-04-28_12h36.45.408,ArchivoPrueba,2024.1.1,None,2024-04-28 12h36.55.819701 -0500,
¿Recuerda  algún inconveniente que ha  experimentado en el camino de su residencia a su lugar de trabajo?,5,white,0,16,16,16,0,2,2,2,52.374730000001364,,,,,,,,,,,,,,,52.34306470000047,52.374730000001364,52.44242960000156,070615,001,2024-04-28_12h36.45.408,ArchivoPrueba,2024.1.1,None,2024-04-28 12h36.55.819701 -0500,
¿Recuerda si hay algún lugar u objeto en su camino hacia el trabajo que le llame la atención?,7,blue,0,16,16,16,0,3,3,3,52.474541800000225,,,,,,,,,,,,,,,52.44395850000001,52.474541800000225,52.557200700000976,070615,001,2024-04-28_12h36.45.408,ArchivoPrueba,2024.1.1,None,2024-04-28 12h36.55.819701 -0500,
" ¿Recuerda el recorrido desde la entrada de su lugar de trabajo hasta su oficina, donde realiza sus funciones?",9,yellow,0,16,16,16,0,4,4,4,52.59090660000038,,,,,,,,,,,,,,,52.55910949999998,52.59090660000038,52.64397310000095,070615,001,2024-04-28_12h36.45.408,ArchivoPrueba,2024.1.1,None,2024-04-28 12h36.55.819701 -0500,
¿Recuerda alguna actividad que realice durante los viajes de regreso a casa desde el trabajo para relajarse?,11,orange,0,16,16,16,0,5,5,5,52.674450600001364,,,,,,,,,,,,,,,52.645035100000314,52.674450600001364,52.75868480000099,070615,001,2024-04-28_12h36.45.408,ArchivoPrueba,2024.1.1,None,2024-04-28 12h36.55.819701 -0500,
¿Recuerda el trayecto que realiza desde su casa hasta el lugar donde realiza sus compras?,13,brown,0,16,16,16,0,6,6,6,52.79091580000022,,,,,,,,,,,,,,,52.76044610000099,52.79091580000022,52.841681300000346,070615,001,2024-04-28_12h36.45.408,ArchivoPrueba,2024.1.1,None,2024-04-28 12h36.55.819701 -0500,
¿Recuerda alguna situación divertida o interesante que haya experimentado durante el recorrido hacia el lugar de compras?,15,purple,0,16,16,16,0,7,7,7,52.874590600000374,,,,,,,,,,,,,,,52.84284090000074,52.874590600000374,52.9604302000007,070615,001,2024-04-28_12h36.45.408,ArchivoPrueba,2024.1.1,None,2024-04-28 12h36.55.819701 -0500,
 ¿Recuerda qué es lo primero que ve al llegar al lugar donde realiza sus compras?,17,green,0,16,16,16,0,8,8,8,52.990714800000205,,,,,,,,,,,,,,,52.96163700000034,52.990714800000205,53.03716780000104,070615,001,2024-04-28_12h36.45.408,ArchivoPrueba,2024.1.1,None,2024-04-28 12h36.55.819701 -0500,
¿Recuerda el recorrido desde su residencia hasta el centro de resonancia magnética?,19,red,0,16,16,16,0,9,9,9,53.074239900000975,,,,,,,,,,,,,,,53.0383139000005,53.074239900000975,53.145215100001224,070615,001,2024-04-28_12h36.45.408,ArchivoPrueba,2024.1.1,None,2024-04-28 12h36.55.819701 -0500,
None,21,white,0,16,16,16,0,10,10,10,53.19066540000131,,,,,,,,,,,,,,,53.146983399999954,53.19066540000131,53.26137630000085,070615,001,2024-04-28_12h36.45.408,ArchivoPrueba,2024.1.1,None,2024-04-28 12h36.55.819701 -0500,
None,23,blue,0,16,16,16,0,11,11,11,53.307340500001374,,,,,,,,,,,,,,,53.26272650000101,53.307340500001374,53.38069690000157,070615,001,2024-04-28_12h36.45.408,ArchivoPrueba,2024.1.1,None,2024-04-28 12h36.55.819701 -0500,
None,25,yellow,0,16,16,16,0,12,12,12,53.42500790000122,,,,,,,,,,,,,,,53.38272000000143,53.42500790000122,53.45097640000131,070615,001,2024-04-28_12h36.45.408,ArchivoPrueba,2024.1.1,None,2024-04-28 12h36.55.819701 -0500,
None,27,orange,0,16,16,16,0,13,13,13,53.490724500001306,,,,,,,,,,,,,,,53.45299740000155,53.490724500001306,53.560932800000955,070615,001,2024-04-28_12h36.45.408,ArchivoPrueba,2024.1.1,None,2024-04-28 12h36.55.819701 -0500,
None,29,brown,0,16,16,16,0,14,14,14,53.607279100000596,,,,,,,,,,,,,,,53.56227240000044,53.607279100000596,53.67733180000141,070615,001,2024-04-28_12h36.45.408,ArchivoPrueba,2024.1.1,None,2024-04-28 12h36.55.819701 -0500,
None,31,purple,0,16,16,16,0,15,15,15,53.723349200001394,,,,,,,,,,,,,,,53.67880690000129,53.723349200001394,53.746101500000805,070615,001,2024-04-28_12h36.45.408,ArchivoPrueba,2024.1.1,None,2024-04-28 12h36.55.819701 -0500,
None,33,green,0,16,16,16,0,16,16,16,53.79043350000029,,,,,,,,,,,,,,,53.74738020000041,53.79043350000029,53.84203630000047,070615,001,2024-04-28_12h36.45.408,ArchivoPrueba,2024.1.1,None,2024-04-28 12h36.55.819701 -0500,
None,35,red,0,16,16,16,0,17,17,17,53.87364040000102,,,,,,,,,,,,,,,53.84307070000068,53.87364040000102,53.9450934000015,070615,001,2024-04-28_12h36.45.408,ArchivoPrueba,2024.1.1,None,2024-04-28 12h36.55.819701 -0500,
None,37,white,0,16,16,16,0,18,18,18,53.98997500000041,,,,,,,,,,,,,,,53.94647100000111,53.98997500000041,54.057524900001226,070615,001,2024-04-28_12h36.45.408,ArchivoPrueba,2024.1.1,None,2024-04-28 12h36.55.819701 -0500,
None,39,blue,0,16,16,16,0,19,19,19,54.08999350000158,,,,,,,,,,,,,,,54.05928380000114,54.08999350000158,54.15418090000094,070615,001,2024-04-28_12h36.45.408,ArchivoPrueba,2024.1.1,None,2024-04-28 12h36.55.819701 -0500,
None,33,green,0,16,16,16,,,,,,,,,,,,,,,,,,,,,,,070615,001,2024-04-28_12h36.45.408,ArchivoPrueba,2024.1.1,None,2024-04-28 12h36.55.819701 -0500,
¿Recuerda el recorrido que realiza desde su cama hasta la cocina de su residencia?,1,green,0,17,17,17,0,0,0,0,55.222146500000235,,,,,,,,,,,,54.15641700000015,54.206895300001634,55.15535760000057,55.19198310000138,55.222146500000235,55.239678200001435,070615,001,2024-04-28_12h36.45.408,ArchivoPrueba,2024.1.1,None,2024-04-28 12h36.55.819701 -0500,
¿Recuerda el trayecto que hace desde su casa hasta su lugar de trabajo?,3,red,0,17,17,17,0,1,1,1,55.27183950000108,,,,,,,,,,,,,,,55.24082460000136,55.27183950000108,55.357393800000864,070615,001,2024-04-28_12h36.45.408,ArchivoPrueba,2024.1.1,None,2024-04-28 12h36.55.819701 -0500,
¿Recuerda  algún inconveniente que ha  experimentado en el camino de su residencia a su lugar de trabajo?,5,white,0,17,17,17,0,2,2,2,55.388816900000165,,,,,,,,,,,,,,,55.358702400000766,55.388816900000165,55.454458300000624,070615,001,2024-04-28_12h36.45.408,ArchivoPrueba,2024.1.1,None,2024-04-28 12h36.55.819701 -0500,
¿Recuerda si hay algún lugar u objeto en su camino hacia el trabajo que le llame la atención?,7,blue,0,17,17,17,0,3,3,3,55.488525000000664,,,,,,,,,,,,,,,55.45572100000027,55.488525000000664,55.53871050000089,070615,001,2024-04-28_12h36.45.408,ArchivoPrueba,2024.1.1,None,2024-04-28 12h36.55.819701 -0500,
" ¿Recuerda el recorrido desde la entrada de su lugar de trabajo hasta su oficina, donde realiza sus funciones?",9,yellow,0,17,17,17,0,4,4,4,55.572123400001146,,,,,,,,,,,,,,,55.53974450000169,55.572123400001146,55.65538390000074,070615,001,2024-04-28_12h36.45.408,ArchivoPrueba,2024.1.1,None,2024-04-28 12h36.55.819701 -0500,
¿Recuerda alguna actividad que realice durante los viajes de regreso a casa desde el trabajo para relajarse?,11,orange,0,17,17,17,0,5,5,5,55.68860830000085,,,,,,,,,,,,,,,55.656406699999934,55.68860830000085,55.73772120000103,070615,001,2024-04-28_12h36.45.408,ArchivoPrueba,2024.1.1,None,2024-04-28 12h36.55.819701 -0500,
¿Recuerda el trayecto que realiza desde su casa hasta el lugar donde realiza sus compras?,13,brown,0,17,17,17,0,6,6,6,55.771358600000895,,,,,,,,,,,,,,,55.73880720000125,55.771358600000895,55.854538600000524,070615,001,2024-04-28_12h36.45.408,ArchivoPrueba,2024.1.1,None,2024-04-28 12h36.55.819701 -0500,
¿Recuerda alguna situación divertida o interesante que haya experimentado durante el recorrido hacia el lugar de compras?,15,purple,0,17,17,17,0,7,7,7,55.888226200000645,,,,,,,,,,,,,,,55.85576690000016,55.888226200000645,55.93937450000158,070615,001,2024-04-28_12h36.45.408,ArchivoPrueba,2024.1.1,None,2024-04-28 12h36.55.819701 -0500,
 ¿Recuerda qué es lo primero que ve al llegar al lugar donde realiza sus compras?,17,green,0,17,17,17,0,8,8,8,55.97155440000097,,,,,,,,,,,,,,,55.94085740000082,55.97155440000097,56.07551180000155,070615,001,2024-04-28_12h36.45.408,ArchivoPrueba,2024.1.1,None,2024-04-28 12h36.55.819701 -0500,
¿Recuerda el recorrido desde su residencia hasta el centro de resonancia magnética?,19,red,0,17,17,17,0,9,9,9,56.120884700001625,,,,,,,,,,,,,,,56.07686250000006,56.120884700001625,56.16703430000052,070615,001,2024-04-28_12h36.45.408,ArchivoPrueba,2024.1.1,None,2024-04-28 12h36.55.819701 -0500,
None,21,white,0,17,17,17,0,10,10,10,56.20429590000094,,,,,,,,,,,,,,,56.16860600000109,56.20429590000094,56.24892600000021,070615,001,2024-04-28_12h36.45.408,ArchivoPrueba,2024.1.1,None,2024-04-28 12h36.55.819701 -0500,
None,23,blue,0,17,17,17,0,11,11,11,56.287424300000566,,,,,,,,,,,,,,,56.2502371999999,56.287424300000566,56.36934199999996,070615,001,2024-04-28_12h36.45.408,ArchivoPrueba,2024.1.1,None,2024-04-28 12h36.55.819701 -0500,
None,25,yellow,0,17,17,17,0,12,12,12,56.40485030000127,,,,,,,,,,,,,,,56.371221100000184,56.40485030000127,56.45221850000053,070615,001,2024-04-28_12h36.45.408,ArchivoPrueba,2024.1.1,None,2024-04-28 12h36.55.819701 -0500,
None,27,orange,0,17,17,17,0,13,13,13,56.48733060000086,,,,,,,,,,,,,,,56.45356450000145,56.48733060000086,56.53739790000145,070615,001,2024-04-28_12h36.45.408,ArchivoPrueba,2024.1.1,None,2024-04-28 12h36.55.819701 -0500,
None,29,brown,0,17,17,17,0,14,14,14,56.57099730000118,,,,,,,,,,,,,,,56.53855939999994,56.57099730000118,56.655552700000044,070615,001,2024-04-28_12h36.45.408,ArchivoPrueba,2024.1.1,None,2024-04-28 12h36.55.819701 -0500,
None,31,purple,0,17,17,17,0,15,15,15,56.68740500000058,,,,,,,,,,,,,,,56.656759800000145,56.68740500000058,56.77141490000031,070615,001,2024-04-28_12h36.45.408,ArchivoPrueba,2024.1.1,None,2024-04-28 12h36.55.819701 -0500,
None,33,green,0,17,17,17,0,16,16,16,56.80401610000081,,,,,,,,,,,,,,,56.77246830000149,56.80401610000081,56.85396480000054,070615,001,2024-04-28_12h36.45.408,ArchivoPrueba,2024.1.1,None,2024-04-28 12h36.55.819701 -0500,
None,35,red,0,17,17,17,0,17,17,17,56.887456100001145,,,,,,,,,,,,,,,56.855165700000725,56.887456100001145,56.96883330000128,070615,001,2024-04-28_12h36.45.408,ArchivoPrueba,2024.1.1,None,2024-04-28 12h36.55.819701 -0500,
None,37,white,0,17,17,17,0,18,18,18,57.003746800000954,,,,,,,,,,,,,,,56.97026840000035,57.003746800000954,57.05096250000133,070615,001,2024-04-28_12h36.45.408,ArchivoPrueba,2024.1.1,None,2024-04-28 12h36.55.819701 -0500,
None,39,blue,0,17,17,17,0,19,19,19,57.087429400000474,,,,,,,,,,,,,,,57.052275300000474,57.087429400000474,57.164294000000154,070615,001,2024-04-28_12h36.45.408,ArchivoPrueba,2024.1.1,None,2024-04-28 12h36.55.819701 -0500,
None,35,red,0,17,17,17,,,,,,,,,,,,,,,,,,,,,,,070615,001,2024-04-28_12h36.45.408,ArchivoPrueba,2024.1.1,None,2024-04-28 12h36.55.819701 -0500,
¿Recuerda el recorrido que realiza desde su cama hasta la cocina de su residencia?,1,green,0,18,18,18,0,0,0,0,58.202507400001195,,,,,,,,,,,,57.165468000001056,57.203493300001355,58.14898810000159,58.17935370000123,58.202507400001195,58.250229900000704,070615,001,2024-04-28_12h36.45.408,ArchivoPrueba,2024.1.1,None,2024-04-28 12h36.55.819701 -0500,
