PreguntaOn,PreguntaOff,Colors,Prueba.thisRepN,Prueba.thisTrialN,Prueba.thisN,Prueba.thisIndex,RepeticionOn.thisRepN,RepeticionOn.thisTrialN,RepeticionOn.thisN,RepeticionOn.thisIndex,thisRow.t,notes,introducción_3.started,introducción.started,mouse.started,introducción_3.stopped,mouse.x,mouse.y,mouse.leftButton,mouse.midButton,mouse.rightButton,mouse.time,On.started,CondicionOn.started,On.stopped,Off.started,CondicionOff.started,Off.stopped,participant,session,date,expName,psychopyVersion,frameRate,expStart,
,,,,,,,,,,,,,0.0743607999975211,0.09631960000115214,0.07375969999702647,6.793788000002678,[-0.11342592592592593],[0.16435185185185186],[1],[0],[0],[6.717505599997821],,,,,,,205319,001,2024-04-28_19h06.23.784,ArchivoPrueba,2024.1.1,None,2024-04-28 19h06.38.729961 -0500,
¿Recuerda el recorrido que realiza desde su cama hasta la cocina de su residencia?,1,green,0,0,0,0,0,0,0,0,7.869648400002916,,,,,,,,,,,,6.834060499997577,6.903797300001315,7.801618199999211,7.832882399998198,7.869648400002916,7.917329299998528,205319,001,2024-04-28_19h06.23.784,ArchivoPrueba,2024.1.1,None,2024-04-28 19h06.38.729961 -0500,
¿Recuerda el trayecto que hace desde su casa hasta su lugar de trabajo?,3,red,0,0,0,0,0,1,1,1,7.952397699998983,,,,,,,,,,,,,,,7.918344099998649,7.952397699998983,8.000478399997519,205319,001,2024-04-28_19h06.23.784,ArchivoPrueba,2024.1.1,None,2024-04-28 19h06.38.729961 -0500,
¿Recuerda  algún inconveniente que ha  experimentado en el camino de su residencia a su lugar de trabajo?,5,white,0,0,0,0,0,2,2,2,8.035838900003,,,,,,,,,,,,,,,8.002916400000686,8.035838900003,8.124155299999984,205319,001,2024-04-28_19h06.23.784,ArchivoPrueba,2024.1.1,None,2024-04-28 19h06.38.729961 -0500,
¿Recuerda si hay algún lugar u objeto en su camino hacia el trabajo que le llame la atención?,7,blue,0,0,0,0,0,3,3,3,8.169098600003053,,,,,,,,,,,,,,,8.125502000002598,8.169098600003053,8.222150100002182,205319,001,2024-04-28_19h06.23.784,ArchivoPrueba,2024.1.1,None,2024-04-28 19h06.38.729961 -0500,
" ¿Recuerda el recorrido desde la entrada de su lugar de trabajo hasta su oficina, donde realiza sus funciones?",9,yellow,0,0,0,0,0,4,4,4,8.269134100002702,,,,,,,,,,,,,,,8.223678900001687,8.269134100002702,8.326660899998387,205319,001,2024-04-28_19h06.23.784,ArchivoPrueba,2024.1.1,None,2024-04-28 19h06.38.729961 -0500,
¿Recuerda alguna actividad que realice durante los viajes de regreso a casa desde el trabajo para relajarse?,11,orange,0,0,0,0,0,5,5,5,8.371712899999693,,,,,,,,,,,,,,,8.328099099999235,8.371712899999693,8.437687300000107,205319,001,2024-04-28_19h06.23.784,ArchivoPrueba,2024.1.1,None,2024-04-28 19h06.38.729961 -0500,
¿Recuerda el trayecto que realiza desde su casa hasta el lugar donde realiza sus compras?,13,brown,0,0,0,0,0,6,6,6,8.471966500001145,,,,,,,,,,,,,,,8.438946399997803,8.471966500001145,8.51930110000103,205319,001,2024-04-28_19h06.23.784,ArchivoPrueba,2024.1.1,None,2024-04-28 19h06.38.729961 -0500,
¿Recuerda alguna situación divertida o interesante que haya experimentado durante el recorrido hacia el lugar de compras?,15,purple,0,0,0,0,0,7,7,7,8.555573300000106,,,,,,,,,,,,,,,8.521764999997686,8.555573300000106,8.62413419999939,205319,001,2024-04-28_19h06.23.784,ArchivoPrueba,2024.1.1,None,2024-04-28 19h06.38.729961 -0500,
 ¿Recuerda qué es lo primero que ve al llegar al lugar donde realiza sus compras?,17,green,0,0,0,0,0,8,8,8,8.655013900002814,,,,,,,,,,,,,,,8.625520800000231,8.655013900002814,8.705546400000458,205319,001,2024-04-28_19h06.23.784,ArchivoPrueba,2024.1.1,None,2024-04-28 19h06.38.729961 -0500,
¿Recuerda el recorrido desde su residencia hasta el centro de resonancia magnética?,19,red,0,0,0,0,0,9,9,9,8.738443499998539,,,,,,,,,,,,,,,8.706657200003974,8.738443499998539,8.821892300002219,205319,001,2024-04-28_19h06.23.784,ArchivoPrueba,2024.1.1,None,2024-04-28 19h06.38.729961 -0500,
None,21,white,0,0,0,0,0,10,10,10,8.868493300004047,,,,,,,,,,,,,,,8.823056200002611,8.868493300004047,8.92469980000169,205319,001,2024-04-28_19h06.23.784,ArchivoPrueba,2024.1.1,None,2024-04-28 19h06.38.729961 -0500,
None,23,blue,0,0,0,0,0,11,11,11,8.95503660000395,,,,,,,,,,,,,,,8.925802899997507,8.95503660000395,9.005620399999316,205319,001,2024-04-28_19h06.23.784,ArchivoPrueba,2024.1.1,None,2024-04-28 19h06.38.729961 -0500,
None,25,yellow,0,0,0,0,0,12,12,12,9.038455900001281,,,,,,,,,,,,,,,9.00705900000321,9.038455900001281,9.127305699999852,205319,001,2024-04-28_19h06.23.784,ArchivoPrueba,2024.1.1,None,2024-04-28 19h06.38.729961 -0500,
None,27,orange,0,0,0,0,0,13,13,13,9.1715503000014,,,,,,,,,,,,,,,9.129042400003527,9.1715503000014,9.220495000001392,205319,001,2024-04-28_19h06.23.784,ArchivoPrueba,2024.1.1,None,2024-04-28 19h06.38.729961 -0500,
None,29,brown,0,0,0,0,0,14,14,14,9.254732499997772,,,,,,,,,,,,,,,9.221991700003855,9.254732499997772,9.32281850000436,205319,001,2024-04-28_19h06.23.784,ArchivoPrueba,2024.1.1,None,2024-04-28 19h06.38.729961 -0500,
None,31,purple,0,0,0,0,0,15,15,15,9.354816699997173,,,,,,,,,,,,,,,9.324310800002422,9.354816699997173,9.426123099998222,205319,001,2024-04-28_19h06.23.784,ArchivoPrueba,2024.1.1,None,2024-04-28 19h06.38.729961 -0500,
None,33,green,0,0,0,0,0,16,16,16,9.471250800001144,,,,,,,,,,,,,,,9.427476800003205,9.471250800001144,9.517776699998649,205319,001,2024-04-28_19h06.23.784,ArchivoPrueba,2024.1.1,None,2024-04-28 19h06.38.729961 -0500,
None,35,red,0,0,0,0,0,17,17,17,9.554786100001365,,,,,,,,,,,,,,,9.519178200003807,9.554786100001365,9.624793599999975,205319,001,2024-04-28_19h06.23.784,ArchivoPrueba,2024.1.1,None,2024-04-28 19h06.38.729961 -0500,
None,37,white,0,0,0,0,0,18,18,18,9.67093510000268,,,,,,,,,,,,,,,9.626065700002073,9.67093510000268,9.737449300002481,205319,001,2024-04-28_19h06.23.784,ArchivoPrueba,2024.1.1,None,2024-04-28 19h06.38.729961 -0500,
None,39,blue,0,0,0,0,0,19,19,19,9.770977699998184,,,,,,,,,,,,,,,9.738608200001181,9.770977699998184,9.837971499997366,205319,001,2024-04-28_19h06.23.784,ArchivoPrueba,2024.1.1,None,2024-04-28 19h06.38.729961 -0500,
¿Recuerda el recorrido que realiza desde su cama hasta la cocina de su residencia?,1,green,0,0,0,0,,,,,,,,,,,,,,,,,,,,,,,205319,001,2024-04-28_19h06.23.784,ArchivoPrueba,2024.1.1,None,2024-04-28 19h06.38.729961 -0500,
¿Recuerda el recorrido que realiza desde su cama hasta la cocina de su residencia?,1,green,0,1,1,1,0,0,0,0,10.886588599998504,,,,,,,,,,,,9.839341600003536,9.901265000000421,10.810621099997661,10.853022299997974,10.886588599998504,10.903327799998806,205319,001,2024-04-28_19h06.23.784,ArchivoPrueba,2024.1.1,None,2024-04-28 19h06.38.729961 -0500,
¿Recuerda el trayecto que hace desde su casa hasta su lugar de trabajo?,3,red,0,1,1,1,0,1,1,1,10.93670209999982,,,,,,,,,,,,,,,10.9047642000005,10.93670209999982,11.022865700004331,205319,001,2024-04-28_19h06.23.784,ArchivoPrueba,2024.1.1,None,2024-04-28 19h06.38.729961 -0500,
¿Recuerda  algún inconveniente que ha  experimentado en el camino de su residencia a su lugar de trabajo?,5,white,0,1,1,1,0,2,2,2,11.069669299999077,,,,,,,,,,,,,,,11.024048300001596,11.069669299999077,11.123477100001764,205319,001,2024-04-28_19h06.23.784,ArchivoPrueba,2024.1.1,None,2024-04-28 19h06.38.729961 -0500,
¿Recuerda si hay algún lugar u objeto en su camino hacia el trabajo que le llame la atención?,7,blue,0,1,1,1,0,3,3,3,11.169493800000055,,,,,,,,,,,,,,,11.12490180000168,11.169493800000055,11.21983850000106,205319,001,2024-04-28_19h06.23.784,ArchivoPrueba,2024.1.1,None,2024-04-28 19h06.38.729961 -0500,
" ¿Recuerda el recorrido desde la entrada de su lugar de trabajo hasta su oficina, donde realiza sus funciones?",9,yellow,0,1,1,1,0,4,4,4,11.252761199997622,,,,,,,,,,,,,,,11.220982200000435,11.252761199997622,11.29997960000037,205319,001,2024-04-28_19h06.23.784,ArchivoPrueba,2024.1.1,None,2024-04-28 19h06.38.729961 -0500,
¿Recuerda alguna actividad que realice durante los viajes de regreso a casa desde el trabajo para relajarse?,11,orange,0,1,1,1,0,5,5,5,11.336382699999376,,,,,,,,,,,,,,,11.301902200000768,11.336382699999376,11.40455110000039,205319,001,2024-04-28_19h06.23.784,ArchivoPrueba,2024.1.1,None,2024-04-28 19h06.38.729961 -0500,
¿Recuerda el trayecto que realiza desde su casa hasta el lugar donde realiza sus compras?,13,brown,0,1,1,1,0,6,6,6,11.436096400000679,,,,,,,,,,,,,,,11.405625999999756,11.436096400000679,11.503804799998761,205319,001,2024-04-28_19h06.23.784,ArchivoPrueba,2024.1.1,None,2024-04-28 19h06.38.729961 -0500,
¿Recuerda alguna situación divertida o interesante que haya experimentado durante el recorrido hacia el lugar de compras?,15,purple,0,1,1,1,0,7,7,7,11.536131200002274,,,,,,,,,,,,,,,11.504890800002613,11.536131200002274,11.603170900001714,205319,001,2024-04-28_19h06.23.784,ArchivoPrueba,2024.1.1,None,2024-04-28 19h06.38.729961 -0500,
 ¿Recuerda qué es lo primero que ve al llegar al lugar donde realiza sus compras?,17,green,0,1,1,1,0,8,8,8,11.635894200000621,,,,,,,,,,,,,,,11.604219300003024,11.635894200000621,11.73699409999972,205319,001,2024-04-28_19h06.23.784,ArchivoPrueba,2024.1.1,None,2024-04-28 19h06.38.729961 -0500,
¿Recuerda el recorrido desde su residencia hasta el centro de resonancia magnética?,19,red,0,1,1,1,0,9,9,9,11.769456300004094,,,,,,,,,,,,,,,11.738155999999435,11.769456300004094,11.795984399999725,205319,001,2024-04-28_19h06.23.784,ArchivoPrueba,2024.1.1,None,2024-04-28 19h06.38.729961 -0500,
None,21,white,0,1,1,1,0,10,10,10,11.852524100002483,,,,,,,,,,,,,,,11.798054700004286,11.852524100002483,11.928377600001113,205319,001,2024-04-28_19h06.23.784,ArchivoPrueba,2024.1.1,None,2024-04-28 19h06.38.729961 -0500,
None,23,blue,0,1,1,1,0,11,11,11,11.969112500002666,,,,,,,,,,,,,,,11.92964419999771,11.969112500002666,12.04111759999796,205319,001,2024-04-28_19h06.23.784,ArchivoPrueba,2024.1.1,None,2024-04-28 19h06.38.729961 -0500,
None,25,yellow,0,1,1,1,0,12,12,12,12.086180500002229,,,,,,,,,,,,,,,12.0423568000042,12.086180500002229,12.107428299997991,205319,001,2024-04-28_19h06.23.784,ArchivoPrueba,2024.1.1,None,2024-04-28 19h06.38.729961 -0500,
None,27,orange,0,1,1,1,0,13,13,13,12.152840299997479,,,,,,,,,,,,,,,12.109205799999472,12.152840299997479,12.224056200000632,205319,001,2024-04-28_19h06.23.784,ArchivoPrueba,2024.1.1,None,2024-04-28 19h06.38.729961 -0500,
None,29,brown,0,1,1,1,0,14,14,14,12.26841389999754,,,,,,,,,,,,,,,12.225416699999187,12.26841389999754,12.320887499998207,205319,001,2024-04-28_19h06.23.784,ArchivoPrueba,2024.1.1,None,2024-04-28 19h06.38.729961 -0500,
None,31,purple,0,1,1,1,0,15,15,15,12.368425599997863,,,,,,,,,,,,,,,12.322297700004128,12.368425599997863,12.423643300004187,205319,001,2024-04-28_19h06.23.784,ArchivoPrueba,2024.1.1,None,2024-04-28 19h06.38.729961 -0500,
None,33,green,0,1,1,1,0,16,16,16,12.46864220000134,,,,,,,,,,,,,,,12.425625000003492,12.46864220000134,12.519804900002782,205319,001,2024-04-28_19h06.23.784,ArchivoPrueba,2024.1.1,None,2024-04-28 19h06.38.729961 -0500,
None,35,red,0,1,1,1,0,17,17,17,12.551918400000432,,,,,,,,,,,,,,,12.521233100000245,12.551918400000432,12.620110000003478,205319,001,2024-04-28_19h06.23.784,ArchivoPrueba,2024.1.1,None,2024-04-28 19h06.38.729961 -0500,
None,37,white,0,1,1,1,0,18,18,18,12.652034500002628,,,,,,,,,,,,,,,12.621243499997945,12.652034500002628,12.721016299998155,205319,001,2024-04-28_19h06.23.784,ArchivoPrueba,2024.1.1,None,2024-04-28 19h06.38.729961 -0500,
None,39,blue,0,1,1,1,0,19,19,19,12.751811900001485,,,,,,,,,,,,,,,12.72211960000277,12.751811900001485,12.815173800001503,205319,001,2024-04-28_19h06.23.784,ArchivoPrueba,2024.1.1,None,2024-04-28 19h06.38.729961 -0500,
¿Recuerda el trayecto que hace desde su casa hasta su lugar de trabajo?,3,red,0,1,1,1,,,,,,,,,,,,,,,,,,,,,,,205319,001,2024-04-28_19h06.23.784,ArchivoPrueba,2024.1.1,None,2024-04-28 19h06.38.729961 -0500,
¿Recuerda el recorrido que realiza desde su cama hasta la cocina de su residencia?,1,green,0,2,2,2,0,0,0,0,13.900716199997987,,,,,,,,,,,,12.81768490000104,12.882116599997971,13.835933599999407,13.870446900000388,13.900716199997987,13.917732599998999,205319,001,2024-04-28_19h06.23.784,ArchivoPrueba,2024.1.1,None,2024-04-28 19h06.38.729961 -0500,
¿Recuerda el trayecto que hace desde su casa hasta su lugar de trabajo?,3,red,0,2,2,2,0,1,1,1,13.95072490000166,,,,,,,,,,,,,,,13.918798500002595,13.95072490000166,14.021618300001137,205319,001,2024-04-28_19h06.23.784,ArchivoPrueba,2024.1.1,None,2024-04-28 19h06.38.729961 -0500,
¿Recuerda  algún inconveniente que ha  experimentado en el camino de su residencia a su lugar de trabajo?,5,white,0,2,2,2,0,2,2,2,14.067355099999986,,,,,,,,,,,,,,,14.022934799999348,14.067355099999986,14.138879500002076,205319,001,2024-04-28_19h06.23.784,ArchivoPrueba,2024.1.1,None,2024-04-28 19h06.38.729961 -0500,
¿Recuerda si hay algún lugar u objeto en su camino hacia el trabajo que le llame la atención?,7,blue,0,2,2,2,0,3,3,3,14.183808900001168,,,,,,,,,,,,,,,14.140475200001674,14.183808900001168,14.204165900002408,205319,001,2024-04-28_19h06.23.784,ArchivoPrueba,2024.1.1,None,2024-04-28 19h06.38.729961 -0500,
" ¿Recuerda el recorrido desde la entrada de su lugar de trabajo hasta su oficina, donde realiza sus funciones?",9,yellow,0,2,2,2,0,4,4,4,14.250090599998657,,,,,,,,,,,,,,,14.205455499999516,14.250090599998657,14.332647199997155,205319,001,2024-04-28_19h06.23.784,ArchivoPrueba,2024.1.1,None,2024-04-28 19h06.38.729961 -0500,
¿Recuerda alguna actividad que realice durante los viajes de regreso a casa desde el trabajo para relajarse?,11,orange,0,2,2,2,0,5,5,5,14.384096800000407,,,,,,,,,,,,,,,14.334472800001095,14.384096800000407,14.403666899997916,205319,001,2024-04-28_19h06.23.784,ArchivoPrueba,2024.1.1,None,2024-04-28 19h06.38.729961 -0500,
¿Recuerda el trayecto que realiza desde su casa hasta el lugar donde realiza sus compras?,13,brown,0,2,2,2,0,6,6,6,14.433592400004272,,,,,,,,,,,,,,,14.404965599998832,14.433592400004272,14.50460700000258,205319,001,2024-04-28_19h06.23.784,ArchivoPrueba,2024.1.1,None,2024-04-28 19h06.38.729961 -0500,
¿Recuerda alguna situación divertida o interesante que haya experimentado durante el recorrido hacia el lugar de compras?,15,purple,0,2,2,2,0,7,7,7,14.54992769999808,,,,,,,,,,,,,,,14.505836299998919,14.54992769999808,14.617972599997302,205319,001,2024-04-28_19h06.23.784,ArchivoPrueba,2024.1.1,None,2024-04-28 19h06.38.729961 -0500,
 ¿Recuerda qué es lo primero que ve al llegar al lugar donde realiza sus compras?,17,green,0,2,2,2,0,8,8,8,14.650615099999413,,,,,,,,,,,,,,,14.61968760000309,14.650615099999413,14.721509399998467,205319,001,2024-04-28_19h06.23.784,ArchivoPrueba,2024.1.1,None,2024-04-28 19h06.38.729961 -0500,
¿Recuerda el recorrido desde su residencia hasta el centro de resonancia magnética?,19,red,0,2,2,2,0,9,9,9,14.766635300002235,,,,,,,,,,,,,,,14.722868400000152,14.766635300002235,14.836514000002353,205319,001,2024-04-28_19h06.23.784,ArchivoPrueba,2024.1.1,None,2024-04-28 19h06.38.729961 -0500,
None,21,white,0,2,2,2,0,10,10,10,14.883190900000045,,,,,,,,,,,,,,,14.837900799997442,14.883190900000045,14.905515200000082,205319,001,2024-04-28_19h06.23.784,ArchivoPrueba,2024.1.1,None,2024-04-28 19h06.38.729961 -0500,
None,23,blue,0,2,2,2,0,11,11,11,14.949904499997501,,,,,,,,,,,,,,,14.90686149999965,14.949904499997501,15.0199455999973,205319,001,2024-04-28_19h06.23.784,ArchivoPrueba,2024.1.1,None,2024-04-28 19h06.38.729961 -0500,
None,25,yellow,0,2,2,2,0,12,12,12,15.06678870000178,,,,,,,,,,,,,,,15.021127799998794,15.06678870000178,15.145189000002574,205319,001,2024-04-28_19h06.23.784,ArchivoPrueba,2024.1.1,None,2024-04-28 19h06.38.729961 -0500,
None,27,orange,0,2,2,2,0,13,13,13,15.183102000002691,,,,,,,,,,,,,,,15.147328999999445,15.183102000002691,15.20556509999733,205319,001,2024-04-28_19h06.23.784,ArchivoPrueba,2024.1.1,None,2024-04-28 19h06.38.729961 -0500,
None,29,brown,0,2,2,2,0,14,14,14,15.24946820000332,,,,,,,,,,,,,,,15.206959600000118,15.24946820000332,15.315239299998211,205319,001,2024-04-28_19h06.23.784,ArchivoPrueba,2024.1.1,None,2024-04-28 19h06.38.729961 -0500,
None,31,purple,0,2,2,2,0,15,15,15,15.3497520000019,,,,,,,,,,,,,,,15.316864899999928,15.3497520000019,15.42052220000187,205319,001,2024-04-28_19h06.23.784,ArchivoPrueba,2024.1.1,None,2024-04-28 19h06.38.729961 -0500,
None,33,green,0,2,2,2,0,16,16,16,15.46598890000314,,,,,,,,,,,,,,,15.421782400000666,15.46598890000314,15.519037899997784,205319,001,2024-04-28_19h06.23.784,ArchivoPrueba,2024.1.1,None,2024-04-28 19h06.38.729961 -0500,
None,35,red,0,2,2,2,0,17,17,17,15.566354900001897,,,,,,,,,,,,,,,15.52124719999847,15.566354900001897,15.638436499997624,205319,001,2024-04-28_19h06.23.784,ArchivoPrueba,2024.1.1,None,2024-04-28 19h06.38.729961 -0500,
None,37,white,0,2,2,2,0,18,18,18,15.682415499999479,,,,,,,,,,,,,,,15.63975550000032,15.682415499999479,15.700572100002319,205319,001,2024-04-28_19h06.23.784,ArchivoPrueba,2024.1.1,None,2024-04-28 19h06.38.729961 -0500,
None,39,blue,0,2,2,2,0,19,19,19,15.732315900000685,,,,,,,,,,,,,,,15.701704600003723,15.732315900000685,15.832796700000472,205319,001,2024-04-28_19h06.23.784,ArchivoPrueba,2024.1.1,None,2024-04-28 19h06.38.729961 -0500,
¿Recuerda  algún inconveniente que ha  experimentado en el camino de su residencia a su lugar de trabajo?,5,white,0,2,2,2,,,,,,,,,,,,,,,,,,,,,,,205319,001,2024-04-28_19h06.23.784,ArchivoPrueba,2024.1.1,None,2024-04-28 19h06.38.729961 -0500,
¿Recuerda el recorrido que realiza desde su cama hasta la cocina de su residencia?,1,green,0,3,3,3,0,0,0,0,16.914588500003447,,,,,,,,,,,,15.8343212999971,15.896250199999486,16.841850700002396,16.884054399997694,16.914588500003447,16.93128190000425,205319,001,2024-04-28_19h06.23.784,ArchivoPrueba,2024.1.1,None,2024-04-28 19h06.38.729961 -0500,
¿Recuerda el trayecto que hace desde su casa hasta su lugar de trabajo?,3,red,0,3,3,3,0,1,1,1,16.964794400002575,,,,,,,,,,,,,,,16.932580699998653,16.964794400002575,17.011275900003966,205319,001,2024-04-28_19h06.23.784,ArchivoPrueba,2024.1.1,None,2024-04-28 19h06.38.729961 -0500,
¿Recuerda  algún inconveniente que ha  experimentado en el camino de su residencia a su lugar de trabajo?,5,white,0,3,3,3,0,2,2,2,17.0480308000042,,,,,,,,,,,,,,,17.01256039999862,17.0480308000042,17.10545970000385,205319,001,2024-04-28_19h06.23.784,ArchivoPrueba,2024.1.1,None,2024-04-28 19h06.38.729961 -0500,
¿Recuerda si hay algún lugar u objeto en su camino hacia el trabajo que le llame la atención?,7,blue,0,3,3,3,0,3,3,3,17.16470400000253,,,,,,,,,,,,,,,17.10776700000133,17.16470400000253,17.236414600003627,205319,001,2024-04-28_19h06.23.784,ArchivoPrueba,2024.1.1,None,2024-04-28 19h06.38.729961 -0500,
" ¿Recuerda el recorrido desde la entrada de su lugar de trabajo hasta su oficina, donde realiza sus funciones?",9,yellow,0,3,3,3,0,4,4,4,17.28155770000012,,,,,,,,,,,,,,,17.23864920000051,17.28155770000012,17.305171699998027,205319,001,2024-04-28_19h06.23.784,ArchivoPrueba,2024.1.1,None,2024-04-28 19h06.38.729961 -0500,
¿Recuerda alguna actividad que realice durante los viajes de regreso a casa desde el trabajo para relajarse?,11,orange,0,3,3,3,0,5,5,5,17.3478860000032,,,,,,,,,,,,,,,17.307501800001774,17.3478860000032,17.41812950000167,205319,001,2024-04-28_19h06.23.784,ArchivoPrueba,2024.1.1,None,2024-04-28 19h06.38.729961 -0500,
¿Recuerda el trayecto que realiza desde su casa hasta el lugar donde realiza sus compras?,13,brown,0,3,3,3,0,6,6,6,17.46451640000305,,,,,,,,,,,,,,,17.419477800001914,17.46451640000305,17.537476800003788,205319,001,2024-04-28_19h06.23.784,ArchivoPrueba,2024.1.1,None,2024-04-28 19h06.38.729961 -0500,
¿Recuerda alguna situación divertida o interesante que haya experimentado durante el recorrido hacia el lugar de compras?,15,purple,0,3,3,3,0,7,7,7,17.58164100000431,,,,,,,,,,,,,,,17.539190299998154,17.58164100000431,17.607998799998313,205319,001,2024-04-28_19h06.23.784,ArchivoPrueba,2024.1.1,None,2024-04-28 19h06.38.729961 -0500,
 ¿Recuerda qué es lo primero que ve al llegar al lugar donde realiza sus compras?,17,green,0,3,3,3,0,8,8,8,17.648025200003758,,,,,,,,,,,,,,,17.609565999999177,17.648025200003758,17.72494469999947,205319,001,2024-04-28_19h06.23.784,ArchivoPrueba,2024.1.1,None,2024-04-28 19h06.38.729961 -0500,
¿Recuerda el recorrido desde su residencia hasta el centro de resonancia magnética?,19,red,0,3,3,3,0,9,9,9,17.764614200001233,,,,,,,,,,,,,,,17.726669700001366,17.764614200001233,17.841115199997148,205319,001,2024-04-28_19h06.23.784,ArchivoPrueba,2024.1.1,None,2024-04-28 19h06.38.729961 -0500,
None,21,white,0,3,3,3,0,10,10,10,17.881247299999814,,,,,,,,,,,,,,,17.842818199998874,17.881247299999814,17.908178400000907,205319,001,2024-04-28_19h06.23.784,ArchivoPrueba,2024.1.1,None,2024-04-28 19h06.38.729961 -0500,
None,23,blue,0,3,3,3,0,11,11,11,17.948675300001923,,,,,,,,,,,,,,,17.909641199999896,17.948675300001923,18.022995899998932,205319,001,2024-04-28_19h06.23.784,ArchivoPrueba,2024.1.1,None,2024-04-28 19h06.38.729961 -0500,
None,25,yellow,0,3,3,3,0,12,12,12,18.06444989999727,,,,,,,,,,,,,,,18.02477170000202,18.06444989999727,18.147511800001666,205319,001,2024-04-28_19h06.23.784,ArchivoPrueba,2024.1.1,None,2024-04-28 19h06.38.729961 -0500,
None,27,orange,0,3,3,3,0,13,13,13,18.19771580000088,,,,,,,,,,,,,,,18.149697200002265,18.19771580000088,18.2220462999976,205319,001,2024-04-28_19h06.23.784,ArchivoPrueba,2024.1.1,None,2024-04-28 19h06.38.729961 -0500,
None,29,brown,0,3,3,3,0,14,14,14,18.263790900004096,,,,,,,,,,,,,,,18.223962000003667,18.263790900004096,18.346167399999104,205319,001,2024-04-28_19h06.23.784,ArchivoPrueba,2024.1.1,None,2024-04-28 19h06.38.729961 -0500,
None,31,purple,0,3,3,3,0,15,15,15,18.39700509999966,,,,,,,,,,,,,,,18.347630099997332,18.39700509999966,18.424357100004272,205319,001,2024-04-28_19h06.23.784,ArchivoPrueba,2024.1.1,None,2024-04-28 19h06.38.729961 -0500,
None,33,green,0,3,3,3,0,16,16,16,18.463839199997892,,,,,,,,,,,,,,,18.42597409999871,18.463839199997892,18.530277800004114,205319,001,2024-04-28_19h06.23.784,ArchivoPrueba,2024.1.1,None,2024-04-28 19h06.38.729961 -0500,
None,35,red,0,3,3,3,0,17,17,17,18.58041840000078,,,,,,,,,,,,,,,18.53195340000093,18.58041840000078,18.608650499998475,205319,001,2024-04-28_19h06.23.784,ArchivoPrueba,2024.1.1,None,2024-04-28 19h06.38.729961 -0500,
None,37,white,0,3,3,3,0,18,18,18,18.64715140000044,,,,,,,,,,,,,,,18.610342899999523,18.64715140000044,18.72315840000374,205319,001,2024-04-28_19h06.23.784,ArchivoPrueba,2024.1.1,None,2024-04-28 19h06.38.729961 -0500,
None,39,blue,0,3,3,3,0,19,19,19,18.76344049999898,,,,,,,,,,,,,,,18.724801000003936,18.76344049999898,18.83464660000027,205319,001,2024-04-28_19h06.23.784,ArchivoPrueba,2024.1.1,None,2024-04-28 19h06.38.729961 -0500,
¿Recuerda si hay algún lugar u objeto en su camino hacia el trabajo que le llame la atención?,7,blue,0,3,3,3,,,,,,,,,,,,,,,,,,,,,,,205319,001,2024-04-28_19h06.23.784,ArchivoPrueba,2024.1.1,None,2024-04-28 19h06.38.729961 -0500,
¿Recuerda el recorrido que realiza desde su cama hasta la cocina de su residencia?,1,green,0,4,4,4,0,0,0,0,19.945452699997986,,,,,,,,,,,,18.836425399997097,18.94370689999778,19.840055499997106,19.895627400001104,,19.90616350000346,205319,001,2024-04-28_19h06.23.784,ArchivoPrueba,2024.1.1,None,2024-04-28 19h06.38.729961 -0500,
¿Recuerda el trayecto que hace desde su casa hasta su lugar de trabajo?,3,red,0,4,4,4,0,1,1,1,19.945452699997986,,,,,,,,,,,,,,,19.907437200003187,19.945452699997986,20.014460799997323,205319,001,2024-04-28_19h06.23.784,ArchivoPrueba,2024.1.1,None,2024-04-28 19h06.38.729961 -0500,
¿Recuerda  algún inconveniente que ha  experimentado en el camino de su residencia a su lugar de trabajo?,5,white,0,4,4,4,0,2,2,2,20.045483499998227,,,,,,,,,,,,,,,20.015601200000674,20.045483499998227,20.134606100000383,205319,001,2024-04-28_19h06.23.784,ArchivoPrueba,2024.1.1,None,2024-04-28 19h06.38.729961 -0500,
¿Recuerda si hay algún lugar u objeto en su camino hacia el trabajo que le llame la atención?,7,blue,0,4,4,4,0,3,3,3,20.178594999997586,,,,,,,,,,,,,,,20.136126800003694,20.178594999997586,20.20491349999793,205319,001,2024-04-28_19h06.23.784,ArchivoPrueba,2024.1.1,None,2024-04-28 19h06.38.729961 -0500,
" ¿Recuerda el recorrido desde la entrada de su lugar de trabajo hasta su oficina, donde realiza sus funciones?",9,yellow,0,4,4,4,0,4,4,4,20.245733100004145,,,,,,,,,,,,,,,20.206627200001094,20.245733100004145,20.32316870000068,205319,001,2024-04-28_19h06.23.784,ArchivoPrueba,2024.1.1,None,2024-04-28 19h06.38.729961 -0500,
¿Recuerda alguna actividad que realice durante los viajes de regreso a casa desde el trabajo para relajarse?,11,orange,0,4,4,4,0,5,5,5,20.36208120000083,,,,,,,,,,,,,,,20.324639899998147,20.36208120000083,20.44315590000042,205319,001,2024-04-28_19h06.23.784,ArchivoPrueba,2024.1.1,None,2024-04-28 19h06.38.729961 -0500,
¿Recuerda el trayecto que realiza desde su casa hasta el lugar donde realiza sus compras?,13,brown,0,4,4,4,0,6,6,6,20.495201800003997,,,,,,,,,,,,,,,20.444611600003554,20.495201800003997,20.52126539999881,205319,001,2024-04-28_19h06.23.784,ArchivoPrueba,2024.1.1,None,2024-04-28 19h06.38.729961 -0500,
¿Recuerda alguna situación divertida o interesante que haya experimentado durante el recorrido hacia el lugar de compras?,15,purple,0,4,4,4,0,7,7,7,20.578493300003174,,,,,,,,,,,,,,,20.523011600002064,20.578493300003174,20.599672800002736,205319,001,2024-04-28_19h06.23.784,ArchivoPrueba,2024.1.1,None,2024-04-28 19h06.38.729961 -0500,
 ¿Recuerda qué es lo primero que ve al llegar al lugar donde realiza sus compras?,17,green,0,4,4,4,0,8,8,8,20.645066199998837,,,,,,,,,,,,,,,20.601001100003486,20.645066199998837,20.71151059999829,205319,001,2024-04-28_19h06.23.784,ArchivoPrueba,2024.1.1,None,2024-04-28 19h06.38.729961 -0500,
¿Recuerda el recorrido desde su residencia hasta el centro de resonancia magnética?,19,red,0,4,4,4,0,9,9,9,20.745382699999027,,,,,,,,,,,,,,,20.71304660000169,20.745382699999027,20.81168030000117,205319,001,2024-04-28_19h06.23.784,ArchivoPrueba,2024.1.1,None,2024-04-28 19h06.38.729961 -0500,
None,21,white,0,4,4,4,0,10,10,10,20.845017699997697,,,,,,,,,,,,,,,20.813044299997273,20.845017699997697,20.915793599997414,205319,001,2024-04-28_19h06.23.784,ArchivoPrueba,2024.1.1,None,2024-04-28 19h06.38.729961 -0500,
None,23,blue,0,4,4,4,0,11,11,11,20.96163279999746,,,,,,,,,,,,,,,20.917416199998115,20.96163279999746,21.03930190000392,205319,001,2024-04-28_19h06.23.784,ArchivoPrueba,2024.1.1,None,2024-04-28 19h06.38.729961 -0500,
None,25,yellow,0,4,4,4,0,12,12,12,21.078514300003008,,,,,,,,,,,,,,,21.041047500002605,21.078514300003008,21.104005400004098,205319,001,2024-04-28_19h06.23.784,ArchivoPrueba,2024.1.1,None,2024-04-28 19h06.38.729961 -0500,
None,27,orange,0,4,4,4,0,13,13,13,21.145090300000447,,,,,,,,,,,,,,,21.10617579999962,21.145090300000447,21.207117800004198,205319,001,2024-04-28_19h06.23.784,ArchivoPrueba,2024.1.1,None,2024-04-28 19h06.38.729961 -0500,
None,29,brown,0,4,4,4,0,14,14,14,21.2440065999981,,,,,,,,,,,,,,,21.208180800000264,21.2440065999981,21.315105599998788,205319,001,2024-04-28_19h06.23.784,ArchivoPrueba,2024.1.1,None,2024-04-28 19h06.38.729961 -0500,
None,31,purple,0,4,4,4,0,15,15,15,21.361418599997705,,,,,,,,,,,,,,,21.316579500002263,21.361418599997705,21.397417000000132,205319,001,2024-04-28_19h06.23.784,ArchivoPrueba,2024.1.1,None,2024-04-28 19h06.38.729961 -0500,
None,33,green,0,4,4,4,0,16,16,16,21.444551200002024,,,,,,,,,,,,,,,21.399537600002077,21.444551200002024,21.515784600000188,205319,001,2024-04-28_19h06.23.784,ArchivoPrueba,2024.1.1,None,2024-04-28 19h06.38.729961 -0500,
None,35,red,0,4,4,4,0,17,17,17,21.56064989999868,,,,,,,,,,,,,,,21.517068900000595,21.56064989999868,21.638069200002064,205319,001,2024-04-28_19h06.23.784,ArchivoPrueba,2024.1.1,None,2024-04-28 19h06.38.729961 -0500,
None,37,white,0,4,4,4,0,18,18,18,21.693663700003526,,,,,,,,,,,,,,,21.639787599997362,21.693663700003526,21.719356100002187,205319,001,2024-04-28_19h06.23.784,ArchivoPrueba,2024.1.1,None,2024-04-28 19h06.38.729961 -0500,
None,39,blue,0,4,4,4,0,19,19,19,21.760893500002567,,,,,,,,,,,,,,,21.720887900002708,21.760893500002567,21.833005000000412,205319,001,2024-04-28_19h06.23.784,ArchivoPrueba,2024.1.1,None,2024-04-28 19h06.38.729961 -0500,
" ¿Recuerda el recorrido desde la entrada de su lugar de trabajo hasta su oficina, donde realiza sus funciones?",9,yellow,0,4,4,4,,,,,,,,,,,,,,,,,,,,,,,205319,001,2024-04-28_19h06.23.784,ArchivoPrueba,2024.1.1,None,2024-04-28 19h06.38.729961 -0500,
¿Recuerda el recorrido que realiza desde su cama hasta la cocina de su residencia?,1,green,0,5,5,5,0,0,0,0,22.893313799999305,,,,,,,,,,,,21.835219500004314,21.89381339999818,22.814314600000216,22.85759639999742,22.893313799999305,22.914280600001803,205319,001,2024-04-28_19h06.23.784,ArchivoPrueba,2024.1.1,None,2024-04-28 19h06.38.729961 -0500,
¿Recuerda el trayecto que hace desde su casa hasta su lugar de trabajo?,3,red,0,5,5,5,0,1,1,1,22.959849400001985,,,,,,,,,,,,,,,22.9165834000014,22.959849400001985,23.036607599999115,205319,001,2024-04-28_19h06.23.784,ArchivoPrueba,2024.1.1,None,2024-04-28 19h06.38.729961 -0500,
¿Recuerda  algún inconveniente que ha  experimentado en el camino de su residencia a su lugar de trabajo?,5,white,0,5,5,5,0,2,2,2,23.076858400003402,,,,,,,,,,,,,,,23.03806210000039,23.076858400003402,23.10404749999725,205319,001,2024-04-28_19h06.23.784,ArchivoPrueba,2024.1.1,None,2024-04-28 19h06.38.729961 -0500,
¿Recuerda si hay algún lugar u objeto en su camino hacia el trabajo que le llame la atención?,7,blue,0,5,5,5,0,3,3,3,23.159669400003622,,,,,,,,,,,,,,,23.10549400000309,23.159669400003622,23.23973280000064,205319,001,2024-04-28_19h06.23.784,ArchivoPrueba,2024.1.1,None,2024-04-28 19h06.38.729961 -0500,
" ¿Recuerda el recorrido desde la entrada de su lugar de trabajo hasta su oficina, donde realiza sus funciones?",9,yellow,0,5,5,5,0,4,4,4,23.2929282000041,,,,,,,,,,,,,,,23.24139699999796,23.2929282000041,23.3238566,205319,001,2024-04-28_19h06.23.784,ArchivoPrueba,2024.1.1,None,2024-04-28 19h06.38.729961 -0500,
¿Recuerda alguna actividad que realice durante los viajes de regreso a casa desde el trabajo para relajarse?,11,orange,0,5,5,5,0,5,5,5,23.36080120000406,,,,,,,,,,,,,,,23.325287699997716,23.36080120000406,23.431553800000984,205319,001,2024-04-28_19h06.23.784,ArchivoPrueba,2024.1.1,None,2024-04-28 19h06.38.729961 -0500,
¿Recuerda el trayecto que realiza desde su casa hasta el lugar donde realiza sus compras?,13,brown,0,5,5,5,0,6,6,6,23.47635050000099,,,,,,,,,,,,,,,23.43324179999763,23.47635050000099,23.504323000001023,205319,001,2024-04-28_19h06.23.784,ArchivoPrueba,2024.1.1,None,2024-04-28 19h06.38.729961 -0500,
¿Recuerda alguna situación divertida o interesante que haya experimentado durante el recorrido hacia el lugar de compras?,15,purple,0,5,5,5,0,7,7,7,23.542997800002922,,,,,,,,,,,,,,,23.505941900002654,23.542997800002922,23.614236000001256,205319,001,2024-04-28_19h06.23.784,ArchivoPrueba,2024.1.1,None,2024-04-28 19h06.38.729961 -0500,
 ¿Recuerda qué es lo primero que ve al llegar al lugar donde realiza sus compras?,17,green,0,5,5,5,0,8,8,8,23.659609800000908,,,,,,,,,,,,,,,23.615823599997384,23.659609800000908,23.736827499997162,205319,001,2024-04-28_19h06.23.784,ArchivoPrueba,2024.1.1,None,2024-04-28 19h06.38.729961 -0500,
¿Recuerda el recorrido desde su residencia hasta el centro de resonancia magnética?,19,red,0,5,5,5,0,9,9,9,23.77637720000348,,,,,,,,,,,,,,,23.738341299998865,23.77637720000348,23.804794800002128,205319,001,2024-04-28_19h06.23.784,ArchivoPrueba,2024.1.1,None,2024-04-28 19h06.38.729961 -0500,
None,21,white,0,5,5,5,0,10,10,10,23.842748299997766,,,,,,,,,,,,,,,23.806671400001505,23.842748299997766,23.922140100003162,205319,001,2024-04-28_19h06.23.784,ArchivoPrueba,2024.1.1,None,2024-04-28 19h06.38.729961 -0500,
None,23,blue,0,5,5,5,0,11,11,11,23.959098300001642,,,,,,,,,,,,,,,23.923646800001734,23.959098300001642,24.038370399997802,205319,001,2024-04-28_19h06.23.784,ArchivoPrueba,2024.1.1,None,2024-04-28 19h06.38.729961 -0500,
None,25,yellow,0,5,5,5,0,12,12,12,24.075556199997663,,,,,,,,,,,,,,,24.039996500003326,24.075556199997663,24.10487060000014,205319,001,2024-04-28_19h06.23.784,ArchivoPrueba,2024.1.1,None,2024-04-28 19h06.38.729961 -0500,
None,27,orange,0,5,5,5,0,13,13,13,24.159986200000276,,,,,,,,,,,,,,,24.106309700000565,24.159986200000276,24.254026599999634,205319,001,2024-04-28_19h06.23.784,ArchivoPrueba,2024.1.1,None,2024-04-28 19h06.38.729961 -0500,
None,29,brown,0,5,5,5,0,14,14,14,24.29188830000203,,,,,,,,,,,,,,,24.255783200002043,24.29188830000203,24.317598200002976,205319,001,2024-04-28_19h06.23.784,ArchivoPrueba,2024.1.1,None,2024-04-28 19h06.38.729961 -0500,
None,31,purple,0,5,5,5,0,15,15,15,24.35882120000315,,,,,,,,,,,,,,,24.319350199999462,24.35882120000315,24.43547789999866,205319,001,2024-04-28_19h06.23.784,ArchivoPrueba,2024.1.1,None,2024-04-28 19h06.38.729961 -0500,
None,33,green,0,5,5,5,0,16,16,16,24.475414900000033,,,,,,,,,,,,,,,24.437146199998097,24.475414900000033,24.506062200001907,205319,001,2024-04-28_19h06.23.784,ArchivoPrueba,2024.1.1,None,2024-04-28 19h06.38.729961 -0500,
None,35,red,0,5,5,5,0,17,17,17,24.55816649999906,,,,,,,,,,,,,,,24.50754500000039,24.55816649999906,24.63762030000362,205319,001,2024-04-28_19h06.23.784,ArchivoPrueba,2024.1.1,None,2024-04-28 19h06.38.729961 -0500,
None,37,white,0,5,5,5,0,18,18,18,24.6756905000002,,,,,,,,,,,,,,,24.639417200000025,24.6756905000002,24.7022386000026,205319,001,2024-04-28_19h06.23.784,ArchivoPrueba,2024.1.1,None,2024-04-28 19h06.38.729961 -0500,
None,39,blue,0,5,5,5,0,19,19,19,24.74184460000106,,,,,,,,,,,,,,,24.703804199998558,24.74184460000106,24.812810399998853,205319,001,2024-04-28_19h06.23.784,ArchivoPrueba,2024.1.1,None,2024-04-28 19h06.38.729961 -0500,
¿Recuerda alguna actividad que realice durante los viajes de regreso a casa desde el trabajo para relajarse?,11,orange,0,5,5,5,,,,,,,,,,,,,,,,,,,,,,,205319,001,2024-04-28_19h06.23.784,ArchivoPrueba,2024.1.1,None,2024-04-28 19h06.38.729961 -0500,
¿Recuerda el recorrido que realiza desde su cama hasta la cocina de su residencia?,1,green,0,6,6,6,0,0,0,0,25.9069559999989,,,,,,,,,,,,24.814849200003664,24.87500159999763,25.817315899999812,25.863923700002488,25.9069559999989,25.934098700003233,205319,001,2024-04-28_19h06.23.784,ArchivoPrueba,2024.1.1,None,2024-04-28 19h06.38.729961 -0500,
¿Recuerda el trayecto que hace desde su casa hasta su lugar de trabajo?,3,red,0,6,6,6,0,1,1,1,25.973959599999944,,,,,,,,,,,,,,,25.935564400002477,25.973959599999944,25.999772900002426,205319,001,2024-04-28_19h06.23.784,ArchivoPrueba,2024.1.1,None,2024-04-28 19h06.38.729961 -0500,
¿Recuerda  algún inconveniente que ha  experimentado en el camino de su residencia a su lugar de trabajo?,5,white,0,6,6,6,0,2,2,2,26.04119940000237,,,,,,,,,,,,,,,26.001581700002134,26.04119940000237,26.124407499999506,205319,001,2024-04-28_19h06.23.784,ArchivoPrueba,2024.1.1,None,2024-04-28 19h06.38.729961 -0500,
¿Recuerda si hay algún lugar u objeto en su camino hacia el trabajo que le llame la atención?,7,blue,0,6,6,6,0,3,3,3,26.17421540000214,,,,,,,,,,,,,,,26.127176000001782,26.17421540000214,26.19661300000007,205319,001,2024-04-28_19h06.23.784,ArchivoPrueba,2024.1.1,None,2024-04-28 19h06.38.729961 -0500,
" ¿Recuerda el recorrido desde la entrada de su lugar de trabajo hasta su oficina, donde realiza sus funciones?",9,yellow,0,6,6,6,0,4,4,4,26.290103300001647,,,,,,,,,,,,,,,26.198285600003146,26.290103300001647,26.314893100003246,205319,001,2024-04-28_19h06.23.784,ArchivoPrueba,2024.1.1,None,2024-04-28 19h06.38.729961 -0500,
¿Recuerda alguna actividad que realice durante los viajes de regreso a casa desde el trabajo para relajarse?,11,orange,0,6,6,6,0,5,5,5,26.35734780000348,,,,,,,,,,,,,,,26.317478299999493,26.35734780000348,26.434307000003173,205319,001,2024-04-28_19h06.23.784,ArchivoPrueba,2024.1.1,None,2024-04-28 19h06.38.729961 -0500,
¿Recuerda el trayecto que realiza desde su casa hasta el lugar donde realiza sus compras?,13,brown,0,6,6,6,0,6,6,6,26.473692999999912,,,,,,,,,,,,,,,26.435743699999875,26.473692999999912,26.50262500000099,205319,001,2024-04-28_19h06.23.784,ArchivoPrueba,2024.1.1,None,2024-04-28 19h06.38.729961 -0500,
¿Recuerda alguna situación divertida o interesante que haya experimentado durante el recorrido hacia el lugar de compras?,15,purple,0,6,6,6,0,7,7,7,26.540985999999975,,,,,,,,,,,,,,,26.50432069999806,26.540985999999975,26.618024100003822,205319,001,2024-04-28_19h06.23.784,ArchivoPrueba,2024.1.1,None,2024-04-28 19h06.38.729961 -0500,
 ¿Recuerda qué es lo primero que ve al llegar al lugar donde realiza sus compras?,17,green,0,6,6,6,0,8,8,8,26.65701490000356,,,,,,,,,,,,,,,26.61961490000249,26.65701490000356,26.72863650000363,205319,001,2024-04-28_19h06.23.784,ArchivoPrueba,2024.1.1,None,2024-04-28 19h06.38.729961 -0500,
¿Recuerda el recorrido desde su residencia hasta el centro de resonancia magnética?,19,red,0,6,6,6,0,9,9,9,26.773597600003995,,,,,,,,,,,,,,,26.73048430000199,26.773597600003995,26.79957260000083,205319,001,2024-04-28_19h06.23.784,ArchivoPrueba,2024.1.1,None,2024-04-28 19h06.38.729961 -0500,
None,21,white,0,6,6,6,0,10,10,10,26.84016790000169,,,,,,,,,,,,,,,26.801342200000363,26.84016790000169,26.919882300004247,205319,001,2024-04-28_19h06.23.784,ArchivoPrueba,2024.1.1,None,2024-04-28 19h06.38.729961 -0500,
None,23,blue,0,6,6,6,0,11,11,11,26.956621199999063,,,,,,,,,,,,,,,26.921320400004333,26.956621199999063,27.032698200004234,205319,001,2024-04-28_19h06.23.784,ArchivoPrueba,2024.1.1,None,2024-04-28 19h06.38.729961 -0500,
None,25,yellow,0,6,6,6,0,12,12,12,27.0732136000006,,,,,,,,,,,,,,,27.034398800002236,27.0732136000006,27.09940120000101,205319,001,2024-04-28_19h06.23.784,ArchivoPrueba,2024.1.1,None,2024-04-28 19h06.38.729961 -0500,
None,27,orange,0,6,6,6,0,13,13,13,27.140046500004246,,,,,,,,,,,,,,,27.10111060000054,27.140046500004246,27.217549200002395,205319,001,2024-04-28_19h06.23.784,ArchivoPrueba,2024.1.1,None,2024-04-28 19h06.38.729961 -0500,
None,29,brown,0,6,6,6,0,14,14,14,27.255656100001943,,,,,,,,,,,,,,,27.218480399998953,27.255656100001943,27.29958700000134,205319,001,2024-04-28_19h06.23.784,ArchivoPrueba,2024.1.1,None,2024-04-28 19h06.38.729961 -0500,
None,31,purple,0,6,6,6,0,15,15,15,27.320953100002953,,,,,,,,,,,,,,,27.300492200003646,27.320953100002953,27.394767500001763,205319,001,2024-04-28_19h06.23.784,ArchivoPrueba,2024.1.1,None,2024-04-28 19h06.38.729961 -0500,
None,33,green,0,6,6,6,0,16,16,16,27.420863300001656,,,,,,,,,,,,,,,27.395349200000055,27.420863300001656,27.494649300002493,205319,001,2024-04-28_19h06.23.784,ArchivoPrueba,2024.1.1,None,2024-04-28 19h06.38.729961 -0500,
None,35,red,0,6,6,6,0,17,17,17,27.520959100002074,,,,,,,,,,,,,,,27.49525330000324,27.520959100002074,27.595716600000742,205319,001,2024-04-28_19h06.23.784,ArchivoPrueba,2024.1.1,None,2024-04-28 19h06.38.729961 -0500,
None,37,white,0,6,6,6,0,18,18,18,27.620912700003828,,,,,,,,,,,,,,,27.596380599999975,27.620912700003828,27.729393900001014,205319,001,2024-04-28_19h06.23.784,ArchivoPrueba,2024.1.1,None,2024-04-28 19h06.38.729961 -0500,
None,39,blue,0,6,6,6,0,19,19,19,27.754015799997433,,,,,,,,,,,,,,,27.73014669999975,27.754015799997433,27.7959062000009,205319,001,2024-04-28_19h06.23.784,ArchivoPrueba,2024.1.1,None,2024-04-28 19h06.38.729961 -0500,
¿Recuerda el trayecto que realiza desde su casa hasta el lugar donde realiza sus compras?,13,brown,0,6,6,6,,,,,,,,,,,,,,,,,,,,,,,205319,001,2024-04-28_19h06.23.784,ArchivoPrueba,2024.1.1,None,2024-04-28 19h06.38.729961 -0500,
¿Recuerda el recorrido que realiza desde su cama hasta la cocina de su residencia?,1,green,0,7,7,7,0,0,0,0,28.869925899998634,,,,,,,,,,,,27.796617200001492,27.837531400000444,28.816348699998343,28.84502169999905,28.869925899998634,28.91399210000236,205319,001,2024-04-28_19h06.23.784,ArchivoPrueba,2024.1.1,None,2024-04-28 19h06.38.729961 -0500,
¿Recuerda el trayecto que hace desde su casa hasta su lugar de trabajo?,3,red,0,7,7,7,0,1,1,1,28.936193399997137,,,,,,,,,,,,,,,28.91478140000254,28.936193399997137,29.013554600001953,205319,001,2024-04-28_19h06.23.784,ArchivoPrueba,2024.1.1,None,2024-04-28 19h06.38.729961 -0500,
¿Recuerda  algún inconveniente que ha  experimentado en el camino de su residencia a su lugar de trabajo?,5,white,0,7,7,7,0,2,2,2,29.0531267999977,,,,,,,,,,,,,,,29.01436079999985,29.0531267999977,29.108225100004347,205319,001,2024-04-28_19h06.23.784,ArchivoPrueba,2024.1.1,None,2024-04-28 19h06.38.729961 -0500,
¿Recuerda si hay algún lugar u objeto en su camino hacia el trabajo que le llame la atención?,7,blue,0,7,7,7,0,3,3,3,29.136722600000212,,,,,,,,,,,,,,,29.10894289999851,29.136722600000212,29.214500399997632,205319,001,2024-04-28_19h06.23.784,ArchivoPrueba,2024.1.1,None,2024-04-28 19h06.38.729961 -0500,
" ¿Recuerda el recorrido desde la entrada de su lugar de trabajo hasta su oficina, donde realiza sus funciones?",9,yellow,0,7,7,7,0,4,4,4,29.236592200002633,,,,,,,,,,,,,,,29.215478700003587,29.236592200002633,29.311340799999016,205319,001,2024-04-28_19h06.23.784,ArchivoPrueba,2024.1.1,None,2024-04-28 19h06.38.729961 -0500,
¿Recuerda alguna actividad que realice durante los viajes de regreso a casa desde el trabajo para relajarse?,11,orange,0,7,7,7,0,5,5,5,29.335942800003977,,,,,,,,,,,,,,,29.312094300003082,29.335942800003977,29.41137400000298,205319,001,2024-04-28_19h06.23.784,ArchivoPrueba,2024.1.1,None,2024-04-28 19h06.38.729961 -0500,
¿Recuerda el trayecto que realiza desde su casa hasta el lugar donde realiza sus compras?,13,brown,0,7,7,7,0,6,6,6,29.436332800003584,,,,,,,,,,,,,,,29.41221790000418,29.436332800003584,29.513961099997687,205319,001,2024-04-28_19h06.23.784,ArchivoPrueba,2024.1.1,None,2024-04-28 19h06.38.729961 -0500,
¿Recuerda alguna situación divertida o interesante que haya experimentado durante el recorrido hacia el lugar de compras?,15,purple,0,7,7,7,0,7,7,7,29.53625760000432,,,,,,,,,,,,,,,29.514762099999643,29.53625760000432,29.613520400002017,205319,001,2024-04-28_19h06.23.784,ArchivoPrueba,2024.1.1,None,2024-04-28 19h06.38.729961 -0500,
 ¿Recuerda qué es lo primero que ve al llegar al lugar donde realiza sus compras?,17,green,0,7,7,7,0,8,8,8,29.635904399998253,,,,,,,,,,,,,,,29.614250799997535,29.635904399998253,29.710397800001374,205319,001,2024-04-28_19h06.23.784,ArchivoPrueba,2024.1.1,None,2024-04-28 19h06.38.729961 -0500,
¿Recuerda el recorrido desde su residencia hasta el centro de resonancia magnética?,19,red,0,7,7,7,0,9,9,9,29.735923100000946,,,,,,,,,,,,,,,29.711108700001205,29.735923100000946,29.81252769999992,205319,001,2024-04-28_19h06.23.784,ArchivoPrueba,2024.1.1,None,2024-04-28 19h06.38.729961 -0500,
None,21,white,0,7,7,7,0,10,10,10,29.835747099998116,,,,,,,,,,,,,,,29.813283900002716,29.835747099998116,29.913700999997673,205319,001,2024-04-28_19h06.23.784,ArchivoPrueba,2024.1.1,None,2024-04-28 19h06.38.729961 -0500,
None,23,blue,0,7,7,7,0,11,11,11,29.935457899999165,,,,,,,,,,,,,,,29.914504899999883,29.935457899999165,30.010188500004006,205319,001,2024-04-28_19h06.23.784,ArchivoPrueba,2024.1.1,None,2024-04-28 19h06.38.729961 -0500,
None,25,yellow,0,7,7,7,0,12,12,12,30.035263400000986,,,,,,,,,,,,,,,30.010690299997805,30.035263400000986,30.110719000003883,205319,001,2024-04-28_19h06.23.784,ArchivoPrueba,2024.1.1,None,2024-04-28 19h06.38.729961 -0500,
None,27,orange,0,7,7,7,0,13,13,13,30.13503320000018,,,,,,,,,,,,,,,30.11149480000313,30.13503320000018,30.20947739999974,205319,001,2024-04-28_19h06.23.784,ArchivoPrueba,2024.1.1,None,2024-04-28 19h06.38.729961 -0500,
None,29,brown,0,7,7,7,0,14,14,14,30.2352092000001,,,,,,,,,,,,,,,30.210097499999392,30.2352092000001,30.311760099997628,205319,001,2024-04-28_19h06.23.784,ArchivoPrueba,2024.1.1,None,2024-04-28 19h06.38.729961 -0500,
None,31,purple,0,7,7,7,0,15,15,15,30.335725099997944,,,,,,,,,,,,,,,30.31245879999915,30.335725099997944,30.415412399997876,205319,001,2024-04-28_19h06.23.784,ArchivoPrueba,2024.1.1,None,2024-04-28 19h06.38.729961 -0500,
None,33,green,0,7,7,7,0,16,16,16,30.452395300002536,,,,,,,,,,,,,,,30.416583199999877,30.452395300002536,30.49718230000144,205319,001,2024-04-28_19h06.23.784,ArchivoPrueba,2024.1.1,None,2024-04-28 19h06.38.729961 -0500,
None,35,red,0,7,7,7,0,17,17,17,30.535845500002324,,,,,,,,,,,,,,,30.49836030000006,30.535845500002324,30.61310339999909,205319,001,2024-04-28_19h06.23.784,ArchivoPrueba,2024.1.1,None,2024-04-28 19h06.38.729961 -0500,
None,37,white,0,7,7,7,0,18,18,18,30.652268700003333,,,,,,,,,,,,,,,30.614373700002034,30.652268700003333,30.703373500000453,205319,001,2024-04-28_19h06.23.784,ArchivoPrueba,2024.1.1,None,2024-04-28 19h06.38.729961 -0500,
None,39,blue,0,7,7,7,0,19,19,19,30.735479599999962,,,,,,,,,,,,,,,30.70440830000007,30.735479599999962,30.813878200002364,205319,001,2024-04-28_19h06.23.784,ArchivoPrueba,2024.1.1,None,2024-04-28 19h06.38.729961 -0500,
¿Recuerda alguna situación divertida o interesante que haya experimentado durante el recorrido hacia el lugar de compras?,15,purple,0,7,7,7,,,,,,,,,,,,,,,,,,,,,,,205319,001,2024-04-28_19h06.23.784,ArchivoPrueba,2024.1.1,None,2024-04-28 19h06.38.729961 -0500,
¿Recuerda el recorrido que realiza desde su cama hasta la cocina de su residencia?,1,green,0,8,8,8,0,0,0,0,31.85132650000014,,,,,,,,,,,,30.81541180000204,30.866145500003768,31.797690799998236,31.82483019999927,31.85132650000014,31.898634800003492,205319,001,2024-04-28_19h06.23.784,ArchivoPrueba,2024.1.1,None,2024-04-28 19h06.38.729961 -0500,
¿Recuerda el trayecto que hace desde su casa hasta su lugar de trabajo?,3,red,0,8,8,8,0,1,1,1,31.934327800001483,,,,,,,,,,,,,,,31.899659200003953,31.934327800001483,32.01558920000389,205319,001,2024-04-28_19h06.23.784,ArchivoPrueba,2024.1.1,None,2024-04-28 19h06.38.729961 -0500,
¿Recuerda  algún inconveniente que ha  experimentado en el camino de su residencia a su lugar de trabajo?,5,white,0,8,8,8,0,2,2,2,32.051246800001536,,,,,,,,,,,,,,,32.01686560000235,32.051246800001536,32.10040480000316,205319,001,2024-04-28_19h06.23.784,ArchivoPrueba,2024.1.1,None,2024-04-28 19h06.38.729961 -0500,
¿Recuerda si hay algún lugar u objeto en su camino hacia el trabajo que le llame la atención?,7,blue,0,8,8,8,0,3,3,3,32.13452900000266,,,,,,,,,,,,,,,32.10175739999977,32.13452900000266,32.21242239999992,205319,001,2024-04-28_19h06.23.784,ArchivoPrueba,2024.1.1,None,2024-04-28 19h06.38.729961 -0500,
" ¿Recuerda el recorrido desde la entrada de su lugar de trabajo hasta su oficina, donde realiza sus funciones?",9,yellow,0,8,8,8,0,4,4,4,32.250828600001114,,,,,,,,,,,,,,,32.2133834999986,32.250828600001114,32.29628490000323,205319,001,2024-04-28_19h06.23.784,ArchivoPrueba,2024.1.1,None,2024-04-28 19h06.38.729961 -0500,
¿Recuerda alguna actividad que realice durante los viajes de regreso a casa desde el trabajo para relajarse?,11,orange,0,8,8,8,0,5,5,5,32.334044399998675,,,,,,,,,,,,,,,32.29780690000189,32.334044399998675,32.41499869999825,205319,001,2024-04-28_19h06.23.784,ArchivoPrueba,2024.1.1,None,2024-04-28 19h06.38.729961 -0500,
¿Recuerda el trayecto que realiza desde su casa hasta el lugar donde realiza sus compras?,13,brown,0,8,8,8,0,6,6,6,32.45072230000369,,,,,,,,,,,,,,,32.41666229999828,32.45072230000369,32.49835190000158,205319,001,2024-04-28_19h06.23.784,ArchivoPrueba,2024.1.1,None,2024-04-28 19h06.38.729961 -0500,
¿Recuerda alguna situación divertida o interesante que haya experimentado durante el recorrido hacia el lugar de compras?,15,purple,0,8,8,8,0,7,7,7,32.53380630000174,,,,,,,,,,,,,,,32.49933089999831,32.53380630000174,32.61383290000231,205319,001,2024-04-28_19h06.23.784,ArchivoPrueba,2024.1.1,None,2024-04-28 19h06.38.729961 -0500,
 ¿Recuerda qué es lo primero que ve al llegar al lugar donde realiza sus compras?,17,green,0,8,8,8,0,8,8,8,32.65056460000051,,,,,,,,,,,,,,,32.614894500002265,32.65056460000051,32.69789370000217,205319,001,2024-04-28_19h06.23.784,ArchivoPrueba,2024.1.1,None,2024-04-28 19h06.38.729961 -0500,
¿Recuerda el recorrido desde su residencia hasta el centro de resonancia magnética?,19,red,0,8,8,8,0,9,9,9,32.73433300000033,,,,,,,,,,,,,,,32.69910769999842,32.73433300000033,32.81287259999954,205319,001,2024-04-28_19h06.23.784,ArchivoPrueba,2024.1.1,None,2024-04-28 19h06.38.729961 -0500,
None,21,white,0,8,8,8,0,10,10,10,32.85034489999816,,,,,,,,,,,,,,,32.81411420000222,32.85034489999816,32.89449959999911,205319,001,2024-04-28_19h06.23.784,ArchivoPrueba,2024.1.1,None,2024-04-28 19h06.38.729961 -0500,
None,23,blue,0,8,8,8,0,11,11,11,32.93393140000262,,,,,,,,,,,,,,,32.89534950000234,32.93393140000262,33.011209500000405,205319,001,2024-04-28_19h06.23.784,ArchivoPrueba,2024.1.1,None,2024-04-28 19h06.38.729961 -0500,
None,25,yellow,0,8,8,8,0,12,12,12,33.05009399999835,,,,,,,,,,,,,,,33.01203990000067,33.05009399999835,33.096509900002275,205319,001,2024-04-28_19h06.23.784,ArchivoPrueba,2024.1.1,None,2024-04-28 19h06.38.729961 -0500,
None,27,orange,0,8,8,8,0,13,13,13,33.13343359999999,,,,,,,,,,,,,,,33.09758950000105,33.13343359999999,33.212903300001926,205319,001,2024-04-28_19h06.23.784,ArchivoPrueba,2024.1.1,None,2024-04-28 19h06.38.729961 -0500,
None,29,brown,0,8,8,8,0,14,14,14,33.24989820000337,,,,,,,,,,,,,,,33.21393369999714,33.24989820000337,33.29506440000114,205319,001,2024-04-28_19h06.23.784,ArchivoPrueba,2024.1.1,None,2024-04-28 19h06.38.729961 -0500,
None,31,purple,0,8,8,8,0,15,15,15,33.33330299999943,,,,,,,,,,,,,,,33.29594139999972,33.33330299999943,33.41287000000011,205319,001,2024-04-28_19h06.23.784,ArchivoPrueba,2024.1.1,None,2024-04-28 19h06.38.729961 -0500,
None,33,green,0,8,8,8,0,16,16,16,33.45014580000134,,,,,,,,,,,,,,,33.414177099999506,33.45014580000134,33.495439199999964,205319,001,2024-04-28_19h06.23.784,ArchivoPrueba,2024.1.1,None,2024-04-28 19h06.38.729961 -0500,
None,35,red,0,8,8,8,0,17,17,17,33.53300090000266,,,,,,,,,,,,,,,33.496589599999425,33.53300090000266,33.61206510000193,205319,001,2024-04-28_19h06.23.784,ArchivoPrueba,2024.1.1,None,2024-04-28 19h06.38.729961 -0500,
None,37,white,0,8,8,8,0,18,18,18,33.64991860000009,,,,,,,,,,,,,,,33.613585400002194,33.64991860000009,33.72897979999834,205319,001,2024-04-28_19h06.23.784,ArchivoPrueba,2024.1.1,None,2024-04-28 19h06.38.729961 -0500,
None,39,blue,0,8,8,8,0,19,19,19,33.76619370000117,,,,,,,,,,,,,,,33.729930699999386,33.76619370000117,33.81003339999734,205319,001,2024-04-28_19h06.23.784,ArchivoPrueba,2024.1.1,None,2024-04-28 19h06.38.729961 -0500,
 ¿Recuerda qué es lo primero que ve al llegar al lugar donde realiza sus compras?,17,green,0,8,8,8,,,,,,,,,,,,,,,,,,,,,,,205319,001,2024-04-28_19h06.23.784,ArchivoPrueba,2024.1.1,None,2024-04-28 19h06.38.729961 -0500,
¿Recuerda el recorrido que realiza desde su cama hasta la cocina de su residencia?,1,green,0,9,9,9,0,0,0,0,34.86570439999923,,,,,,,,,,,,33.81098419999762,33.84976560000359,34.7972243999975,34.83135729999776,34.86570439999923,34.91446349999751,205319,001,2024-04-28_19h06.23.784,ArchivoPrueba,2024.1.1,None,2024-04-28 19h06.38.729961 -0500,
¿Recuerda el trayecto que hace desde su casa hasta su lugar de trabajo?,3,red,0,9,9,9,0,1,1,1,34.94870020000235,,,,,,,,,,,,,,,34.91567999999825,34.94870020000235,35.02926870000374,205319,001,2024-04-28_19h06.23.784,ArchivoPrueba,2024.1.1,None,2024-04-28 19h06.38.729961 -0500,
¿Recuerda  algún inconveniente que ha  experimentado en el camino de su residencia a su lugar de trabajo?,5,white,0,9,9,9,0,2,2,2,35.0652642999994,,,,,,,,,,,,,,,35.03137479999714,35.0652642999994,35.12109420000343,205319,001,2024-04-28_19h06.23.784,ArchivoPrueba,2024.1.1,None,2024-04-28 19h06.38.729961 -0500,
¿Recuerda si hay algún lugar u objeto en su camino hacia el trabajo que le llame la atención?,7,blue,0,9,9,9,0,3,3,3,35.16509919999953,,,,,,,,,,,,,,,35.12246779999987,35.16509919999953,35.21330989999842,205319,001,2024-04-28_19h06.23.784,ArchivoPrueba,2024.1.1,None,2024-04-28 19h06.38.729961 -0500,
" ¿Recuerda el recorrido desde la entrada de su lugar de trabajo hasta su oficina, donde realiza sus funciones?",9,yellow,0,9,9,9,0,4,4,4,35.24837800000387,,,,,,,,,,,,,,,35.214874400000554,35.24837800000387,35.310424199997215,205319,001,2024-04-28_19h06.23.784,ArchivoPrueba,2024.1.1,None,2024-04-28 19h06.38.729961 -0500,
¿Recuerda alguna actividad que realice durante los viajes de regreso a casa desde el trabajo para relajarse?,11,orange,0,9,9,9,0,5,5,5,35.348946400001296,,,,,,,,,,,,,,,35.311951199997566,35.348946400001296,35.420786900001985,205319,001,2024-04-28_19h06.23.784,ArchivoPrueba,2024.1.1,None,2024-04-28 19h06.38.729961 -0500,
¿Recuerda el trayecto que realiza desde su casa hasta el lugar donde realiza sus compras?,13,brown,0,9,9,9,0,6,6,6,35.46523200000229,,,,,,,,,,,,,,,35.422042400001374,35.46523200000229,35.515574500001094,205319,001,2024-04-28_19h06.23.784,ArchivoPrueba,2024.1.1,None,2024-04-28 19h06.38.729961 -0500,
¿Recuerda alguna situación divertida o interesante que haya experimentado durante el recorrido hacia el lugar de compras?,15,purple,0,9,9,9,0,7,7,7,35.61505059999763,,,,,,,,,,,,,,,35.51715189999959,35.61505059999763,35.635276000000886,205319,001,2024-04-28_19h06.23.784,ArchivoPrueba,2024.1.1,None,2024-04-28 19h06.38.729961 -0500,
 ¿Recuerda qué es lo primero que ve al llegar al lugar donde realiza sus compras?,17,green,0,9,9,9,0,8,8,8,35.68193070000416,,,,,,,,,,,,,,,35.63639630000398,35.68193070000416,35.70128999999724,205319,001,2024-04-28_19h06.23.784,ArchivoPrueba,2024.1.1,None,2024-04-28 19h06.38.729961 -0500,
¿Recuerda el recorrido desde su residencia hasta el centro de resonancia magnética?,19,red,0,9,9,9,0,9,9,9,35.74820300000283,,,,,,,,,,,,,,,35.70248960000026,35.74820300000283,35.799360400000296,205319,001,2024-04-28_19h06.23.784,ArchivoPrueba,2024.1.1,None,2024-04-28 19h06.38.729961 -0500,
None,21,white,0,9,9,9,0,10,10,10,35.83152140000311,,,,,,,,,,,,,,,35.80053400000179,35.83152140000311,35.89933680000104,205319,001,2024-04-28_19h06.23.784,ArchivoPrueba,2024.1.1,None,2024-04-28 19h06.38.729961 -0500,
None,23,blue,0,9,9,9,0,11,11,11,35.964695200003916,,,,,,,,,,,,,,,35.900376500001585,35.964695200003916,36.01158189999842,205319,001,2024-04-28_19h06.23.784,ArchivoPrueba,2024.1.1,None,2024-04-28 19h06.38.729961 -0500,
None,25,yellow,0,9,9,9,0,12,12,12,36.04813789999753,,,,,,,,,,,,,,,36.013851600000635,36.04813789999753,36.10167299999739,205319,001,2024-04-28_19h06.23.784,ArchivoPrueba,2024.1.1,None,2024-04-28 19h06.38.729961 -0500,
None,27,orange,0,9,9,9,0,13,13,13,36.147889300002134,,,,,,,,,,,,,,,36.102864799999224,36.147889300002134,36.21770770000148,205319,001,2024-04-28_19h06.23.784,ArchivoPrueba,2024.1.1,None,2024-04-28 19h06.38.729961 -0500,
None,29,brown,0,9,9,9,0,14,14,14,36.26431170000433,,,,,,,,,,,,,,,36.21889250000095,36.26431170000433,36.31759939999756,205319,001,2024-04-28_19h06.23.784,ArchivoPrueba,2024.1.1,None,2024-04-28 19h06.38.729961 -0500,
None,31,purple,0,9,9,9,0,15,15,15,36.34840180000174,,,,,,,,,,,,,,,36.31905890000053,36.34840180000174,36.41465310000058,205319,001,2024-04-28_19h06.23.784,ArchivoPrueba,2024.1.1,None,2024-04-28 19h06.38.729961 -0500,
None,33,green,0,9,9,9,0,16,16,16,36.447647699998925,,,,,,,,,,,,,,,36.41589380000369,36.447647699998925,36.500581899999816,205319,001,2024-04-28_19h06.23.784,ArchivoPrueba,2024.1.1,None,2024-04-28 19h06.38.729961 -0500,
None,35,red,0,9,9,9,0,17,17,17,36.53082230000291,,,,,,,,,,,,,,,36.50172210000164,36.53082230000291,36.63625090000278,205319,001,2024-04-28_19h06.23.784,ArchivoPrueba,2024.1.1,None,2024-04-28 19h06.38.729961 -0500,
None,37,white,0,9,9,9,0,18,18,18,36.68080180000106,,,,,,,,,,,,,,,36.63755530000344,36.68080180000106,36.69998299999861,205319,001,2024-04-28_19h06.23.784,ArchivoPrueba,2024.1.1,None,2024-04-28 19h06.38.729961 -0500,
None,39,blue,0,9,9,9,0,19,19,19,36.73075249999965,,,,,,,,,,,,,,,36.701036899998144,36.73075249999965,36.798121300002094,205319,001,2024-04-28_19h06.23.784,ArchivoPrueba,2024.1.1,None,2024-04-28 19h06.38.729961 -0500,
¿Recuerda el recorrido desde su residencia hasta el centro de resonancia magnética?,19,red,0,9,9,9,,,,,,,,,,,,,,,,,,,,,,,205319,001,2024-04-28_19h06.23.784,ArchivoPrueba,2024.1.1,None,2024-04-28 19h06.38.729961 -0500,
¿Recuerda el recorrido que realiza desde su cama hasta la cocina de su residencia?,1,green,0,10,10,10,0,0,0,0,37.89625420000084,,,,,,,,,,,,36.79940940000233,36.84756280000147,37.83229410000058,37.86557249999896,37.89625420000084,37.91499669999757,205319,001,2024-04-28_19h06.23.784,ArchivoPrueba,2024.1.1,None,2024-04-28 19h06.38.729961 -0500,
¿Recuerda el trayecto que hace desde su casa hasta su lugar de trabajo?,3,red,0,10,10,10,0,1,1,1,37.94628229999944,,,,,,,,,,,,,,,37.91601760000049,37.94628229999944,38.01565529999789,205319,001,2024-04-28_19h06.23.784,ArchivoPrueba,2024.1.1,None,2024-04-28 19h06.38.729961 -0500,
¿Recuerda  algún inconveniente que ha  experimentado en el camino de su residencia a su lugar de trabajo?,5,white,0,10,10,10,0,2,2,2,38.04597240000294,,,,,,,,,,,,,,,38.017343999999866,38.04597240000294,38.11667250000028,205319,001,2024-04-28_19h06.23.784,ArchivoPrueba,2024.1.1,None,2024-04-28 19h06.38.729961 -0500,
¿Recuerda si hay algún lugar u objeto en su camino hacia el trabajo que le llame la atención?,7,blue,0,10,10,10,0,3,3,3,38.16284760000417,,,,,,,,,,,,,,,38.11820090000401,38.16284760000417,38.220021000001,205319,001,2024-04-28_19h06.23.784,ArchivoPrueba,2024.1.1,None,2024-04-28 19h06.38.729961 -0500,
" ¿Recuerda el recorrido desde la entrada de su lugar de trabajo hasta su oficina, donde realiza sus funciones?",9,yellow,0,10,10,10,0,4,4,4,38.24488740000379,,,,,,,,,,,,,,,38.22059289999743,38.24488740000379,38.30115410000144,205319,001,2024-04-28_19h06.23.784,ArchivoPrueba,2024.1.1,None,2024-04-28 19h06.38.729961 -0500,
¿Recuerda alguna actividad que realice durante los viajes de regreso a casa desde el trabajo para relajarse?,11,orange,0,10,10,10,0,5,5,5,38.346125299998675,,,,,,,,,,,,,,,38.3024946000005,38.346125299998675,38.43087250000099,205319,001,2024-04-28_19h06.23.784,ArchivoPrueba,2024.1.1,None,2024-04-28 19h06.38.729961 -0500,
¿Recuerda el trayecto que realiza desde su casa hasta el lugar donde realiza sus compras?,13,brown,0,10,10,10,0,6,6,6,38.4625492999985,,,,,,,,,,,,,,,38.43213619999733,38.4625492999985,38.528659499999776,205319,001,2024-04-28_19h06.23.784,ArchivoPrueba,2024.1.1,None,2024-04-28 19h06.38.729961 -0500,
¿Recuerda alguna situación divertida o interesante que haya experimentado durante el recorrido hacia el lugar de compras?,15,purple,0,10,10,10,0,7,7,7,38.56246349999856,,,,,,,,,,,,,,,38.530175599997165,38.56246349999856,38.63022269999783,205319,001,2024-04-28_19h06.23.784,ArchivoPrueba,2024.1.1,None,2024-04-28 19h06.38.729961 -0500,
 ¿Recuerda qué es lo primero que ve al llegar al lugar donde realiza sus compras?,17,green,0,10,10,10,0,8,8,8,38.66242570000031,,,,,,,,,,,,,,,38.63145580000128,38.66242570000031,38.73058090000268,205319,001,2024-04-28_19h06.23.784,ArchivoPrueba,2024.1.1,None,2024-04-28 19h06.38.729961 -0500,
¿Recuerda el recorrido desde su residencia hasta el centro de resonancia magnética?,19,red,0,10,10,10,0,9,9,9,38.76263040000049,,,,,,,,,,,,,,,38.73171739999816,38.76263040000049,38.8309866999989,205319,001,2024-04-28_19h06.23.784,ArchivoPrueba,2024.1.1,None,2024-04-28 19h06.38.729961 -0500,
None,21,white,0,10,10,10,0,10,10,10,38.862310600001365,,,,,,,,,,,,,,,38.8321947000004,38.862310600001365,38.931109999997716,205319,001,2024-04-28_19h06.23.784,ArchivoPrueba,2024.1.1,None,2024-04-28 19h06.38.729961 -0500,
None,23,blue,0,10,10,10,0,11,11,11,38.96208689999912,,,,,,,,,,,,,,,38.9323138999971,38.96208689999912,39.01448410000012,205319,001,2024-04-28_19h06.23.784,ArchivoPrueba,2024.1.1,None,2024-04-28 19h06.38.729961 -0500,
None,25,yellow,0,10,10,10,0,12,12,12,39.045370799998636,,,,,,,,,,,,,,,39.01568099999713,39.045370799998636,39.14044319999812,205319,001,2024-04-28_19h06.23.784,ArchivoPrueba,2024.1.1,None,2024-04-28 19h06.38.729961 -0500,
None,27,orange,0,10,10,10,0,13,13,13,39.19709999999759,,,,,,,,,,,,,,,39.1430698999975,39.19709999999759,39.221731500001624,205319,001,2024-04-28_19h06.23.784,ArchivoPrueba,2024.1.1,None,2024-04-28 19h06.38.729961 -0500,
None,29,brown,0,10,10,10,0,14,14,14,39.244567100002314,,,,,,,,,,,,,,,39.222431300004246,39.244567100002314,39.344364500000665,205319,001,2024-04-28_19h06.23.784,ArchivoPrueba,2024.1.1,None,2024-04-28 19h06.38.729961 -0500,
None,31,purple,0,10,10,10,0,15,15,15,39.42859399999725,,,,,,,,,,,,,,,39.34590010000102,39.42859399999725,39.476173299997754,205319,001,2024-04-28_19h06.23.784,ArchivoPrueba,2024.1.1,None,2024-04-28 19h06.38.729961 -0500,
None,33,green,0,10,10,10,0,16,16,16,39.545625999999174,,,,,,,,,,,,,,,39.478391500000726,,39.50217749999865,205319,001,2024-04-28_19h06.23.784,ArchivoPrueba,2024.1.1,None,2024-04-28 19h06.38.729961 -0500,
None,35,red,0,10,10,10,0,17,17,17,39.545625999999174,,,,,,,,,,,,,,,39.503423800000746,39.545625999999174,39.650971399998525,205319,001,2024-04-28_19h06.23.784,ArchivoPrueba,2024.1.1,None,2024-04-28 19h06.38.729961 -0500,
None,37,white,0,10,10,10,0,18,18,18,39.69829120000213,,,,,,,,,,,,,,,39.6525038999971,39.69829120000213,39.72311489999993,205319,001,2024-04-28_19h06.23.784,ArchivoPrueba,2024.1.1,None,2024-04-28 19h06.38.729961 -0500,
None,39,blue,0,10,10,10,0,19,19,19,39.795414100000926,,,,,,,,,,,,,,,39.72534799999994,39.795414100000926,39.81496150000021,205319,001,2024-04-28_19h06.23.784,ArchivoPrueba,2024.1.1,None,2024-04-28 19h06.38.729961 -0500,
None,21,white,0,10,10,10,,,,,,,,,,,,,,,,,,,,,,,205319,001,2024-04-28_19h06.23.784,ArchivoPrueba,2024.1.1,None,2024-04-28 19h06.38.729961 -0500,
¿Recuerda el recorrido que realiza desde su cama hasta la cocina de su residencia?,1,green,0,11,11,11,0,0,0,0,40.910268200001155,,,,,,,,,,,,39.81661300000269,39.87819380000292,40.819174099997326,40.86394219999784,40.910268200001155,40.937997000000905,205319,001,2024-04-28_19h06.23.784,ArchivoPrueba,2024.1.1,None,2024-04-28 19h06.38.729961 -0500,
¿Recuerda el trayecto que hace desde su casa hasta su lugar de trabajo?,3,red,0,11,11,11,0,1,1,1,40.9773497999995,,,,,,,,,,,,,,,40.939327400003094,40.9773497999995,40.99498429999949,205319,001,2024-04-28_19h06.23.784,ArchivoPrueba,2024.1.1,None,2024-04-28 19h06.38.729961 -0500,
¿Recuerda  algún inconveniente que ha  experimentado en el camino de su residencia a su lugar de trabajo?,5,white,0,11,11,11,0,2,2,2,41.0274952999971,,,,,,,,,,,,,,,40.996420900002704,41.0274952999971,41.11103159999766,205319,001,2024-04-28_19h06.23.784,ArchivoPrueba,2024.1.1,None,2024-04-28 19h06.38.729961 -0500,
¿Recuerda si hay algún lugar u objeto en su camino hacia el trabajo que le llame la atención?,7,blue,0,11,11,11,0,3,3,3,41.506370900002366,,,,,,,,,,,,,,,41.11267080000107,41.506370900002366,41.54928040000232,205319,001,2024-04-28_19h06.23.784,ArchivoPrueba,2024.1.1,None,2024-04-28 19h06.38.729961 -0500,
" ¿Recuerda el recorrido desde la entrada de su lugar de trabajo hasta su oficina, donde realiza sus funciones?",9,yellow,0,11,11,11,0,4,4,4,41.60646919999999,,,,,,,,,,,,,,,41.550879800000985,,41.55737919999956,205319,001,2024-04-28_19h06.23.784,ArchivoPrueba,2024.1.1,None,2024-04-28 19h06.38.729961 -0500,
¿Recuerda alguna actividad que realice durante los viajes de regreso a casa desde el trabajo para relajarse?,11,orange,0,11,11,11,0,5,5,5,41.60646919999999,,,,,,,,,,,,,,,41.55806660000235,,41.562466700001096,205319,001,2024-04-28_19h06.23.784,ArchivoPrueba,2024.1.1,None,2024-04-28 19h06.38.729961 -0500,
¿Recuerda el trayecto que realiza desde su casa hasta el lugar donde realiza sus compras?,13,brown,0,11,11,11,0,6,6,6,41.60646919999999,,,,,,,,,,,,,,,41.563201500001014,,41.57123850000062,205319,001,2024-04-28_19h06.23.784,ArchivoPrueba,2024.1.1,None,2024-04-28 19h06.38.729961 -0500,
¿Recuerda alguna situación divertida o interesante que haya experimentado durante el recorrido hacia el lugar de compras?,15,purple,0,11,11,11,0,7,7,7,41.60646919999999,,,,,,,,,,,,,,,41.572037400001136,41.60646919999999,41.614426000000094,205319,001,2024-04-28_19h06.23.784,ArchivoPrueba,2024.1.1,None,2024-04-28 19h06.38.729961 -0500,
 ¿Recuerda qué es lo primero que ve al llegar al lugar donde realiza sus compras?,17,green,0,11,11,11,0,8,8,8,41.64073549999739,,,,,,,,,,,,,,,41.61492210000142,41.64073549999739,41.743271999999706,205319,001,2024-04-28_19h06.23.784,ArchivoPrueba,2024.1.1,None,2024-04-28 19h06.38.729961 -0500,
¿Recuerda el recorrido desde su residencia hasta el centro de resonancia magnética?,19,red,0,11,11,11,0,9,9,9,41.81209060000401,,,,,,,,,,,,,,,41.745769799999835,41.81209060000401,41.84873089999746,205319,001,2024-04-28_19h06.23.784,ArchivoPrueba,2024.1.1,None,2024-04-28 19h06.38.729961 -0500,
None,21,white,0,11,11,11,0,10,10,10,41.958422199997585,,,,,,,,,,,,,,,41.86074129999906,,41.91020220000064,205319,001,2024-04-28_19h06.23.784,ArchivoPrueba,2024.1.1,None,2024-04-28 19h06.38.729961 -0500,
None,23,blue,0,11,11,11,0,11,11,11,41.958422199997585,,,,,,,,,,,,,,,41.911289299998316,41.958422199997585,42.00487889999931,205319,001,2024-04-28_19h06.23.784,ArchivoPrueba,2024.1.1,None,2024-04-28 19h06.38.729961 -0500,
None,25,yellow,0,11,11,11,0,12,12,12,42.04218689999834,,,,,,,,,,,,,,,42.00587539999833,42.04218689999834,42.18271839999943,205319,001,2024-04-28_19h06.23.784,ArchivoPrueba,2024.1.1,None,2024-04-28 19h06.38.729961 -0500,
None,27,orange,0,11,11,11,0,13,13,13,42.206834399999934,,,,,,,,,,,,,,,42.183677400003944,42.206834399999934,42.221976100001484,205319,001,2024-04-28_19h06.23.784,ArchivoPrueba,2024.1.1,None,2024-04-28 19h06.38.729961 -0500,
None,29,brown,0,11,11,11,0,14,14,14,42.24039359999733,,,,,,,,,,,,,,,42.222584299997834,42.24039359999733,42.32349460000114,205319,001,2024-04-28_19h06.23.784,ArchivoPrueba,2024.1.1,None,2024-04-28 19h06.38.729961 -0500,
None,31,purple,0,11,11,11,0,15,15,15,42.35901710000326,,,,,,,,,,,,,,,42.32455189999746,42.35901710000326,42.43830039999739,205319,001,2024-04-28_19h06.23.784,ArchivoPrueba,2024.1.1,None,2024-04-28 19h06.38.729961 -0500,
None,33,green,0,11,11,11,0,16,16,16,42.524182300003304,,,,,,,,,,,,,,,42.43969759999891,42.524182300003304,42.54374760000064,205319,001,2024-04-28_19h06.23.784,ArchivoPrueba,2024.1.1,None,2024-04-28 19h06.38.729961 -0500,
None,35,red,0,11,11,11,0,17,17,17,42.590875900001265,,,,,,,,,,,,,,,42.54546390000178,42.590875900001265,42.6147404000003,205319,001,2024-04-28_19h06.23.784,ArchivoPrueba,2024.1.1,None,2024-04-28 19h06.38.729961 -0500,
None,37,white,0,11,11,11,0,18,18,18,42.65762260000338,,,,,,,,,,,,,,,42.6159101000012,42.65762260000338,42.72628390000318,205319,001,2024-04-28_19h06.23.784,ArchivoPrueba,2024.1.1,None,2024-04-28 19h06.38.729961 -0500,
None,39,blue,0,11,11,11,0,19,19,19,42.77459739999904,,,,,,,,,,,,,,,42.72761999999784,42.77459739999904,42.79720760000055,205319,001,2024-04-28_19h06.23.784,ArchivoPrueba,2024.1.1,None,2024-04-28 19h06.38.729961 -0500,
None,23,blue,0,11,11,11,,,,,,,,,,,,,,,,,,,,,,,205319,001,2024-04-28_19h06.23.784,ArchivoPrueba,2024.1.1,None,2024-04-28 19h06.38.729961 -0500,
¿Recuerda el recorrido que realiza desde su cama hasta la cocina de su residencia?,1,green,0,12,12,12,0,0,0,0,43.88975120000396,,,,,,,,,,,,42.79918480000197,42.90724620000401,43.82278349999979,43.86053260000335,43.88975120000396,43.90405430000101,205319,001,2024-04-28_19h06.23.784,ArchivoPrueba,2024.1.1,None,2024-04-28 19h06.38.729961 -0500,
¿Recuerda el trayecto que hace desde su casa hasta su lugar de trabajo?,3,red,0,12,12,12,0,1,1,1,43.93964280000364,,,,,,,,,,,,,,,43.90509279999969,43.93964280000364,44.021299500003806,205319,001,2024-04-28_19h06.23.784,ArchivoPrueba,2024.1.1,None,2024-04-28 19h06.38.729961 -0500,
¿Recuerda  algún inconveniente que ha  experimentado en el camino de su residencia a su lugar de trabajo?,5,white,0,12,12,12,0,2,2,2,44.10675949999859,,,,,,,,,,,,,,,44.02246179999929,44.10675949999859,44.136678000002576,205319,001,2024-04-28_19h06.23.784,ArchivoPrueba,2024.1.1,None,2024-04-28 19h06.38.729961 -0500,
¿Recuerda si hay algún lugar u objeto en su camino hacia el trabajo que le llame la atención?,7,blue,0,12,12,12,0,3,3,3,44.17300300000352,,,,,,,,,,,,,,,44.138663099998666,44.17300300000352,44.22589410000364,205319,001,2024-04-28_19h06.23.784,ArchivoPrueba,2024.1.1,None,2024-04-28 19h06.38.729961 -0500,
" ¿Recuerda el recorrido desde la entrada de su lugar de trabajo hasta su oficina, donde realiza sus funciones?",9,yellow,0,12,12,12,0,4,4,4,44.256853700004285,,,,,,,,,,,,,,,44.22711430000345,44.256853700004285,44.30672549999872,205319,001,2024-04-28_19h06.23.784,ArchivoPrueba,2024.1.1,None,2024-04-28 19h06.38.729961 -0500,
¿Recuerda alguna actividad que realice durante los viajes de regreso a casa desde el trabajo para relajarse?,11,orange,0,12,12,12,0,5,5,5,44.3398182000019,,,,,,,,,,,,,,,44.30801280000014,44.3398182000019,44.441878099998576,205319,001,2024-04-28_19h06.23.784,ArchivoPrueba,2024.1.1,None,2024-04-28 19h06.38.729961 -0500,
¿Recuerda el trayecto que realiza desde su casa hasta el lugar donde realiza sus compras?,13,brown,0,12,12,12,0,6,6,6,44.47297329999856,,,,,,,,,,,,,,,44.443182299997716,44.47297329999856,44.52508069999749,205319,001,2024-04-28_19h06.23.784,ArchivoPrueba,2024.1.1,None,2024-04-28 19h06.38.729961 -0500,
¿Recuerda alguna situación divertida o interesante que haya experimentado durante el recorrido hacia el lugar de compras?,15,purple,0,12,12,12,0,7,7,7,44.556411199999275,,,,,,,,,,,,,,,44.52642780000315,44.556411199999275,44.62993180000194,205319,001,2024-04-28_19h06.23.784,ArchivoPrueba,2024.1.1,None,2024-04-28 19h06.38.729961 -0500,
 ¿Recuerda qué es lo primero que ve al llegar al lugar donde realiza sus compras?,17,green,0,12,12,12,0,8,8,8,44.675620699999854,,,,,,,,,,,,,,,44.631632000004174,44.675620699999854,44.696101499997894,205319,001,2024-04-28_19h06.23.784,ArchivoPrueba,2024.1.1,None,2024-04-28 19h06.38.729961 -0500,
¿Recuerda el recorrido desde su residencia hasta el centro de resonancia magnética?,19,red,0,12,12,12,0,9,9,9,44.80617429999984,,,,,,,,,,,,,,,44.697445400001016,44.80617429999984,44.824276200000895,205319,001,2024-04-28_19h06.23.784,ArchivoPrueba,2024.1.1,None,2024-04-28 19h06.38.729961 -0500,
None,21,white,0,12,12,12,0,10,10,10,44.855965700000525,,,,,,,,,,,,,,,44.82547770000383,44.855965700000525,44.93765430000349,205319,001,2024-04-28_19h06.23.784,ArchivoPrueba,2024.1.1,None,2024-04-28 19h06.38.729961 -0500,
None,23,blue,0,12,12,12,0,11,11,11,44.989732499998354,,,,,,,,,,,,,,,44.93976800000382,44.989732499998354,45.01753660000395,205319,001,2024-04-28_19h06.23.784,ArchivoPrueba,2024.1.1,None,2024-04-28 19h06.38.729961 -0500,
None,25,yellow,0,12,12,12,0,12,12,12,45.055679999997665,,,,,,,,,,,,,,,45.01886740000191,45.055679999997665,45.13649440000154,205319,001,2024-04-28_19h06.23.784,ArchivoPrueba,2024.1.1,None,2024-04-28 19h06.38.729961 -0500,
None,27,orange,0,12,12,12,0,13,13,13,45.18907610000315,,,,,,,,,,,,,,,45.13850850000017,45.18907610000315,45.208886899999925,205319,001,2024-04-28_19h06.23.784,ArchivoPrueba,2024.1.1,None,2024-04-28 19h06.38.729961 -0500,
None,29,brown,0,12,12,12,0,14,14,14,45.23885899999732,,,,,,,,,,,,,,,45.21038050000061,45.23885899999732,45.303698600000644,205319,001,2024-04-28_19h06.23.784,ArchivoPrueba,2024.1.1,None,2024-04-28 19h06.38.729961 -0500,
None,31,purple,0,12,12,12,0,15,15,15,45.339054099997156,,,,,,,,,,,,,,,45.30495420000079,45.339054099997156,45.4097569000005,205319,001,2024-04-28_19h06.23.784,ArchivoPrueba,2024.1.1,None,2024-04-28 19h06.38.729961 -0500,
None,33,green,0,12,12,12,0,16,16,16,45.45517230000405,,,,,,,,,,,,,,,45.41111040000396,45.45517230000405,45.52288150000095,205319,001,2024-04-28_19h06.23.784,ArchivoPrueba,2024.1.1,None,2024-04-28 19h06.38.729961 -0500,
None,35,red,0,12,12,12,0,17,17,17,45.58824910000112,,,,,,,,,,,,,,,45.52406730000075,45.58824910000112,45.6114557999972,205319,001,2024-04-28_19h06.23.784,ArchivoPrueba,2024.1.1,None,2024-04-28 19h06.38.729961 -0500,
None,37,white,0,12,12,12,0,18,18,18,45.655187500000466,,,,,,,,,,,,,,,45.61281510000117,45.655187500000466,45.708149400001275,205319,001,2024-04-28_19h06.23.784,ArchivoPrueba,2024.1.1,None,2024-04-28 19h06.38.729961 -0500,
None,39,blue,0,12,12,12,0,19,19,19,45.73859739999898,,,,,,,,,,,,,,,45.70947700000397,45.73859739999898,45.80374419999862,205319,001,2024-04-28_19h06.23.784,ArchivoPrueba,2024.1.1,None,2024-04-28 19h06.38.729961 -0500,
None,25,yellow,0,12,12,12,,,,,,,,,,,,,,,,,,,,,,,205319,001,2024-04-28_19h06.23.784,ArchivoPrueba,2024.1.1,None,2024-04-28 19h06.38.729961 -0500,
¿Recuerda el recorrido que realiza desde su cama hasta la cocina de su residencia?,1,green,0,13,13,13,0,0,0,0,46.922013600000355,,,,,,,,,,,,45.80507940000098,45.85497000000032,46.79992160000256,46.87173910000274,46.922013600000355,46.953717500000494,205319,001,2024-04-28_19h06.23.784,ArchivoPrueba,2024.1.1,None,2024-04-28 19h06.38.729961 -0500,
¿Recuerda el trayecto que hace desde su casa hasta su lugar de trabajo?,3,red,0,13,13,13,0,1,1,1,47.00617900000361,,,,,,,,,,,,,,,46.955419700003404,47.00617900000361,47.042290800003684,205319,001,2024-04-28_19h06.23.784,ArchivoPrueba,2024.1.1,None,2024-04-28 19h06.38.729961 -0500,
¿Recuerda  algún inconveniente que ha  experimentado en el camino de su residencia a su lugar de trabajo?,5,white,0,13,13,13,0,2,2,2,47.087872199997946,,,,,,,,,,,,,,,47.04488690000289,47.087872199997946,47.145383900002344,205319,001,2024-04-28_19h06.23.784,ArchivoPrueba,2024.1.1,None,2024-04-28 19h06.38.729961 -0500,
¿Recuerda si hay algún lugar u objeto en su camino hacia el trabajo que le llame la atención?,7,blue,0,13,13,13,0,3,3,3,47.18709939999826,,,,,,,,,,,,,,,47.15315920000285,47.18709939999826,47.22748110000248,205319,001,2024-04-28_19h06.23.784,ArchivoPrueba,2024.1.1,None,2024-04-28 19h06.38.729961 -0500,
" ¿Recuerda el recorrido desde la entrada de su lugar de trabajo hasta su oficina, donde realiza sus funciones?",9,yellow,0,13,13,13,0,4,4,4,47.28786820000096,,,,,,,,,,,,,,,47.23219870000321,47.28786820000096,47.3223152999999,205319,001,2024-04-28_19h06.23.784,ArchivoPrueba,2024.1.1,None,2024-04-28 19h06.38.729961 -0500,
¿Recuerda alguna actividad que realice durante los viajes de regreso a casa desde el trabajo para relajarse?,11,orange,0,13,13,13,0,5,5,5,47.37099809999927,,,,,,,,,,,,,,,47.3242900999976,47.37099809999927,47.402054600002884,205319,001,2024-04-28_19h06.23.784,ArchivoPrueba,2024.1.1,None,2024-04-28 19h06.38.729961 -0500,
¿Recuerda el trayecto que realiza desde su casa hasta el lugar donde realiza sus compras?,13,brown,0,13,13,13,0,6,6,6,47.453634299999976,,,,,,,,,,,,,,,47.40401389999897,47.453634299999976,47.567517399998906,205319,001,2024-04-28_19h06.23.784,ArchivoPrueba,2024.1.1,None,2024-04-28 19h06.38.729961 -0500,
¿Recuerda alguna situación divertida o interesante que haya experimentado durante el recorrido hacia el lugar de compras?,15,purple,0,13,13,13,0,7,7,7,47.60259000000224,,,,,,,,,,,,,,,47.570153200002096,47.60259000000224,47.6194794999974,205319,001,2024-04-28_19h06.23.784,ArchivoPrueba,2024.1.1,None,2024-04-28 19h06.38.729961 -0500,
 ¿Recuerda qué es lo primero que ve al llegar al lugar donde realiza sus compras?,17,green,0,13,13,13,0,8,8,8,47.65284690000408,,,,,,,,,,,,,,,47.62045870000293,47.65284690000408,47.75002310000127,205319,001,2024-04-28_19h06.23.784,ArchivoPrueba,2024.1.1,None,2024-04-28 19h06.38.729961 -0500,
¿Recuerda el recorrido desde su residencia hasta el centro de resonancia magnética?,19,red,0,13,13,13,0,9,9,9,47.786975200004235,,,,,,,,,,,,,,,47.75142700000288,47.786975200004235,47.812866599997506,205319,001,2024-04-28_19h06.23.784,ArchivoPrueba,2024.1.1,None,2024-04-28 19h06.38.729961 -0500,
None,21,white,0,13,13,13,0,10,10,10,47.85428749999846,,,,,,,,,,,,,,,47.814802200002305,47.85428749999846,47.955276499997126,205319,001,2024-04-28_19h06.23.784,ArchivoPrueba,2024.1.1,None,2024-04-28 19h06.38.729961 -0500,
None,23,blue,0,13,13,13,0,11,11,11,48.00560950000363,,,,,,,,,,,,,,,47.95715030000429,48.00560950000363,48.03806610000174,205319,001,2024-04-28_19h06.23.784,ArchivoPrueba,2024.1.1,None,2024-04-28 19h06.38.729961 -0500,
None,25,yellow,0,13,13,13,0,12,12,12,48.0872440000021,,,,,,,,,,,,,,,48.040213699998276,48.0872440000021,48.12342340000032,205319,001,2024-04-28_19h06.23.784,ArchivoPrueba,2024.1.1,None,2024-04-28 19h06.38.729961 -0500,
None,27,orange,0,13,13,13,0,13,13,13,48.187048600004346,,,,,,,,,,,,,,,48.125566299997445,48.187048600004346,48.2213339000009,205319,001,2024-04-28_19h06.23.784,ArchivoPrueba,2024.1.1,None,2024-04-28 19h06.38.729961 -0500,
None,29,brown,0,13,13,13,0,14,14,14,48.26991319999797,,,,,,,,,,,,,,,48.223337499999616,48.26991319999797,48.30338060000213,205319,001,2024-04-28_19h06.23.784,ArchivoPrueba,2024.1.1,None,2024-04-28 19h06.38.729961 -0500,
None,31,purple,0,13,13,13,0,15,15,15,48.353122300002724,,,,,,,,,,,,,,,48.30544070000178,48.353122300002724,48.44901579999714,205319,001,2024-04-28_19h06.23.784,ArchivoPrueba,2024.1.1,None,2024-04-28 19h06.38.729961 -0500,
None,33,green,0,13,13,13,0,16,16,16,48.503639499998826,,,,,,,,,,,,,,,48.45092370000202,48.503639499998826,48.53924150000239,205319,001,2024-04-28_19h06.23.784,ArchivoPrueba,2024.1.1,None,2024-04-28 19h06.38.729961 -0500,
None,35,red,0,13,13,13,0,17,17,17,48.586497500000405,,,,,,,,,,,,,,,48.5414843000035,48.586497500000405,48.61805379999714,205319,001,2024-04-28_19h06.23.784,ArchivoPrueba,2024.1.1,None,2024-04-28 19h06.38.729961 -0500,
None,37,white,0,13,13,13,0,18,18,18,48.670461499998055,,,,,,,,,,,,,,,48.62086270000145,48.670461499998055,48.70787759999803,205319,001,2024-04-28_19h06.23.784,ArchivoPrueba,2024.1.1,None,2024-04-28 19h06.38.729961 -0500,
None,39,blue,0,13,13,13,0,19,19,19,48.75371730000188,,,,,,,,,,,,,,,48.710296299999754,48.75371730000188,48.848299700002826,205319,001,2024-04-28_19h06.23.784,ArchivoPrueba,2024.1.1,None,2024-04-28 19h06.38.729961 -0500,
None,27,orange,0,13,13,13,,,,,,,,,,,,,,,,,,,,,,,205319,001,2024-04-28_19h06.23.784,ArchivoPrueba,2024.1.1,None,2024-04-28 19h06.38.729961 -0500,
¿Recuerda el recorrido que realiza desde su cama hasta la cocina de su residencia?,1,green,0,14,14,14,0,0,0,0,49.985083500003384,,,,,,,,,,,,48.85074639999948,48.919759900003555,49.85053119999793,49.92058520000137,,49.93456090000109,205319,001,2024-04-28_19h06.23.784,ArchivoPrueba,2024.1.1,None,2024-04-28 19h06.38.729961 -0500,
¿Recuerda el trayecto que hace desde su casa hasta su lugar de trabajo?,3,red,0,14,14,14,0,1,1,1,49.985083500003384,,,,,,,,,,,,,,,49.93673890000355,49.985083500003384,50.01656650000223,205319,001,2024-04-28_19h06.23.784,ArchivoPrueba,2024.1.1,None,2024-04-28 19h06.38.729961 -0500,
¿Recuerda  algún inconveniente que ha  experimentado en el camino de su residencia a su lugar de trabajo?,5,white,0,14,14,14,0,2,2,2,50.100968899998406,,,,,,,,,,,,,,,50.018110299999535,50.100968899998406,50.12190959999862,205319,001,2024-04-28_19h06.23.784,ArchivoPrueba,2024.1.1,None,2024-04-28 19h06.38.729961 -0500,
¿Recuerda si hay algún lugar u objeto en su camino hacia el trabajo que le llame la atención?,7,blue,0,14,14,14,0,3,3,3,50.167966400003934,,,,,,,,,,,,,,,50.12484530000074,50.167966400003934,50.245235700000194,205319,001,2024-04-28_19h06.23.784,ArchivoPrueba,2024.1.1,None,2024-04-28 19h06.38.729961 -0500,
" ¿Recuerda el recorrido desde la entrada de su lugar de trabajo hasta su oficina, donde realiza sus funciones?",9,yellow,0,14,14,14,0,4,4,4,50.284605400003784,,,,,,,,,,,,,,,50.24650069999916,50.284605400003784,50.308332900000096,205319,001,2024-04-28_19h06.23.784,ArchivoPrueba,2024.1.1,None,2024-04-28 19h06.38.729961 -0500,
¿Recuerda alguna actividad que realice durante los viajes de regreso a casa desde el trabajo para relajarse?,11,orange,0,14,14,14,0,5,5,5,50.35184229999868,,,,,,,,,,,,,,,50.31000309999945,50.35184229999868,50.44828240000061,205319,001,2024-04-28_19h06.23.784,ArchivoPrueba,2024.1.1,None,2024-04-28 19h06.38.729961 -0500,
¿Recuerda el trayecto que realiza desde su casa hasta el lugar donde realiza sus compras?,13,brown,0,14,14,14,0,6,6,6,50.50097410000308,,,,,,,,,,,,,,,50.44991509999818,50.50097410000308,50.526192700002866,205319,001,2024-04-28_19h06.23.784,ArchivoPrueba,2024.1.1,None,2024-04-28 19h06.38.729961 -0500,
¿Recuerda alguna situación divertida o interesante que haya experimentado durante el recorrido hacia el lugar de compras?,15,purple,0,14,14,14,0,7,7,7,50.567680400003155,,,,,,,,,,,,,,,50.52867069999775,50.567680400003155,50.64148009999917,205319,001,2024-04-28_19h06.23.784,ArchivoPrueba,2024.1.1,None,2024-04-28 19h06.38.729961 -0500,
 ¿Recuerda qué es lo primero que ve al llegar al lugar donde realiza sus compras?,17,green,0,14,14,14,0,8,8,8,50.71774949999963,,,,,,,,,,,,,,,50.644002300003194,50.71774949999963,50.742116699999315,205319,001,2024-04-28_19h06.23.784,ArchivoPrueba,2024.1.1,None,2024-04-28 19h06.38.729961 -0500,
¿Recuerda el recorrido desde su residencia hasta el centro de resonancia magnética?,19,red,0,14,14,14,0,9,9,9,50.78464130000066,,,,,,,,,,,,,,,50.743775100003404,50.78464130000066,50.815705300003174,205319,001,2024-04-28_19h06.23.784,ArchivoPrueba,2024.1.1,None,2024-04-28 19h06.38.729961 -0500,
None,21,white,0,14,14,14,0,10,10,10,50.867955699999584,,,,,,,,,,,,,,,50.8180674000032,50.867955699999584,50.90217069999926,205319,001,2024-04-28_19h06.23.784,ArchivoPrueba,2024.1.1,None,2024-04-28 19h06.38.729961 -0500,
None,23,blue,0,14,14,14,0,11,11,11,50.98499299999821,,,,,,,,,,,,,,,50.90415170000051,50.98499299999821,51.01073129999713,205319,001,2024-04-28_19h06.23.784,ArchivoPrueba,2024.1.1,None,2024-04-28 19h06.38.729961 -0500,
None,25,yellow,0,14,14,14,0,12,12,12,51.050586700002896,,,,,,,,,,,,,,,51.012391399999615,51.050586700002896,51.13153830000374,205319,001,2024-04-28_19h06.23.784,ArchivoPrueba,2024.1.1,None,2024-04-28 19h06.38.729961 -0500,
None,27,orange,0,14,14,14,0,13,13,13,51.18377699999837,,,,,,,,,,,,,,,51.133449900000414,51.18377699999837,51.20704739999928,205319,001,2024-04-28_19h06.23.784,ArchivoPrueba,2024.1.1,None,2024-04-28 19h06.38.729961 -0500,
None,29,brown,0,14,14,14,0,14,14,14,51.250370900001144,,,,,,,,,,,,,,,51.20906500000274,51.250370900001144,51.33555260000139,205319,001,2024-04-28_19h06.23.784,ArchivoPrueba,2024.1.1,None,2024-04-28 19h06.38.729961 -0500,
None,31,purple,0,14,14,14,0,15,15,15,51.38378620000003,,,,,,,,,,,,,,,51.337774500003434,51.38378620000003,51.41721680000046,205319,001,2024-04-28_19h06.23.784,ArchivoPrueba,2024.1.1,None,2024-04-28 19h06.38.729961 -0500,
None,33,green,0,14,14,14,0,16,16,16,51.46768829999928,,,,,,,,,,,,,,,51.419365100002324,51.46768829999928,51.55076640000334,205319,001,2024-04-28_19h06.23.784,ArchivoPrueba,2024.1.1,None,2024-04-28 19h06.38.729961 -0500,
None,35,red,0,14,14,14,0,17,17,17,51.63225329999841,,,,,,,,,,,,,,,51.55289630000334,,51.59908259999793,205319,001,2024-04-28_19h06.23.784,ArchivoPrueba,2024.1.1,None,2024-04-28 19h06.38.729961 -0500,
None,37,white,0,14,14,14,0,18,18,18,51.63225329999841,,,,,,,,,,,,,,,51.60267000000022,51.63225329999841,51.74872960000357,205319,001,2024-04-28_19h06.23.784,ArchivoPrueba,2024.1.1,None,2024-04-28 19h06.38.729961 -0500,
None,39,blue,0,14,14,14,0,19,19,19,51.800494700000854,,,,,,,,,,,,,,,51.75035529999877,51.800494700000854,51.834389100004046,205319,001,2024-04-28_19h06.23.784,ArchivoPrueba,2024.1.1,None,2024-04-28 19h06.38.729961 -0500,
None,29,brown,0,14,14,14,,,,,,,,,,,,,,,,,,,,,,,205319,001,2024-04-28_19h06.23.784,ArchivoPrueba,2024.1.1,None,2024-04-28 19h06.38.729961 -0500,
¿Recuerda el recorrido que realiza desde su cama hasta la cocina de su residencia?,1,green,0,15,15,15,0,0,0,0,52.9167540999988,,,,,,,,,,,,51.83662480000203,51.91721730000427,52.81217440000182,52.87295180000365,52.9167540999988,52.94425980000233,205319,001,2024-04-28_19h06.23.784,ArchivoPrueba,2024.1.1,None,2024-04-28 19h06.38.729961 -0500,
¿Recuerda el trayecto que hace desde su casa hasta su lugar de trabajo?,3,red,0,15,15,15,0,1,1,1,52.9822942000028,,,,,,,,,,,,,,,52.94598660000338,52.9822942000028,53.01365639999858,205319,001,2024-04-28_19h06.23.784,ArchivoPrueba,2024.1.1,None,2024-04-28 19h06.38.729961 -0500,
¿Recuerda  algún inconveniente que ha  experimentado en el camino de su residencia a su lugar de trabajo?,5,white,0,15,15,15,0,2,2,2,53.06710690000182,,,,,,,,,,,,,,,53.01644859999942,53.06710690000182,53.10071279999829,205319,001,2024-04-28_19h06.23.784,ArchivoPrueba,2024.1.1,None,2024-04-28 19h06.38.729961 -0500,
¿Recuerda si hay algún lugar u objeto en su camino hacia el trabajo que le llame la atención?,7,blue,0,15,15,15,0,3,3,3,53.16716430000088,,,,,,,,,,,,,,,53.102818899998965,53.16716430000088,53.224052600002324,205319,001,2024-04-28_19h06.23.784,ArchivoPrueba,2024.1.1,None,2024-04-28 19h06.38.729961 -0500,
" ¿Recuerda el recorrido desde la entrada de su lugar de trabajo hasta su oficina, donde realiza sus funciones?",9,yellow,0,15,15,15,0,4,4,4,53.28560689999722,,,,,,,,,,,,,,,53.22878700000001,53.28560689999722,53.32911150000291,205319,001,2024-04-28_19h06.23.784,ArchivoPrueba,2024.1.1,None,2024-04-28 19h06.38.729961 -0500,
¿Recuerda alguna actividad que realice durante los viajes de regreso a casa desde el trabajo para relajarse?,11,orange,0,15,15,15,0,5,5,5,53.38174900000013,,,,,,,,,,,,,,,53.33215850000124,53.38174900000013,53.39877120000165,205319,001,2024-04-28_19h06.23.784,ArchivoPrueba,2024.1.1,None,2024-04-28 19h06.38.729961 -0500,
¿Recuerda el trayecto que realiza desde su casa hasta el lugar donde realiza sus compras?,13,brown,0,15,15,15,0,6,6,6,53.43304999999964,,,,,,,,,,,,,,,53.40006320000248,53.43304999999964,53.53893560000142,205319,001,2024-04-28_19h06.23.784,ArchivoPrueba,2024.1.1,None,2024-04-28 19h06.38.729961 -0500,
¿Recuerda alguna situación divertida o interesante que haya experimentado durante el recorrido hacia el lugar de compras?,15,purple,0,15,15,15,0,7,7,7,53.66603149999719,,,,,,,,,,,,,,,53.54184499999974,,53.59989050000149,205319,001,2024-04-28_19h06.23.784,ArchivoPrueba,2024.1.1,None,2024-04-28 19h06.38.729961 -0500,
 ¿Recuerda qué es lo primero que ve al llegar al lugar donde realiza sus compras?,17,green,0,15,15,15,0,8,8,8,53.66603149999719,,,,,,,,,,,,,,,53.60205500000302,53.66603149999719,53.70406200000434,205319,001,2024-04-28_19h06.23.784,ArchivoPrueba,2024.1.1,None,2024-04-28 19h06.38.729961 -0500,
¿Recuerda el recorrido desde su residencia hasta el centro de resonancia magnética?,19,red,0,15,15,15,0,9,9,9,53.76486619999923,,,,,,,,,,,,,,,53.70614090000163,53.76486619999923,53.79715759999817,205319,001,2024-04-28_19h06.23.784,ArchivoPrueba,2024.1.1,None,2024-04-28 19h06.38.729961 -0500,
None,21,white,0,15,15,15,0,10,10,10,53.8491559000031,,,,,,,,,,,,,,,53.799538699997356,53.8491559000031,53.94835839999723,205319,001,2024-04-28_19h06.23.784,ArchivoPrueba,2024.1.1,None,2024-04-28 19h06.38.729961 -0500,
None,23,blue,0,15,15,15,0,11,11,11,54.000202800001716,,,,,,,,,,,,,,,53.95085780000227,54.000202800001716,54.046170800000255,205319,001,2024-04-28_19h06.23.784,ArchivoPrueba,2024.1.1,None,2024-04-28 19h06.38.729961 -0500,
None,25,yellow,0,15,15,15,0,12,12,12,54.12074859999848,,,,,,,,,,,,,,,54.049314399999275,54.12074859999848,54.16269360000297,205319,001,2024-04-28_19h06.23.784,ArchivoPrueba,2024.1.1,None,2024-04-28 19h06.38.729961 -0500,
None,27,orange,0,15,15,15,0,13,13,13,54.196855700000015,,,,,,,,,,,,,,,54.163514400002896,54.196855700000015,54.20723040000303,205319,001,2024-04-28_19h06.23.784,ArchivoPrueba,2024.1.1,None,2024-04-28 19h06.38.729961 -0500,
None,29,brown,0,15,15,15,0,14,14,14,54.2310037999996,,,,,,,,,,,,,,,54.20802949999779,54.2310037999996,54.31059439999808,205319,001,2024-04-28_19h06.23.784,ArchivoPrueba,2024.1.1,None,2024-04-28 19h06.38.729961 -0500,
None,31,purple,0,15,15,15,0,15,15,15,54.36496189999889,,,,,,,,,,,,,,,54.31268439999985,54.36496189999889,54.396415700000944,205319,001,2024-04-28_19h06.23.784,ArchivoPrueba,2024.1.1,None,2024-04-28 19h06.38.729961 -0500,
None,33,green,0,15,15,15,0,16,16,16,54.448686600000656,,,,,,,,,,,,,,,54.3986040000018,54.448686600000656,54.569741699997394,205319,001,2024-04-28_19h06.23.784,ArchivoPrueba,2024.1.1,None,2024-04-28 19h06.38.729961 -0500,
None,35,red,0,15,15,15,0,17,17,17,54.69895940000424,,,,,,,,,,,,,,,54.57681020000018,,54.6085127999977,205319,001,2024-04-28_19h06.23.784,ArchivoPrueba,2024.1.1,None,2024-04-28 19h06.38.729961 -0500,
None,37,white,0,15,15,15,0,18,18,18,54.69895940000424,,,,,,,,,,,,,,,54.61485830000311,54.69895940000424,54.71955700000399,205319,001,2024-04-28_19h06.23.784,ArchivoPrueba,2024.1.1,None,2024-04-28 19h06.38.729961 -0500,
None,39,blue,0,15,15,15,0,19,19,19,54.74664270000358,,,,,,,,,,,,,,,54.72029969999858,54.74664270000358,54.82890469999984,205319,001,2024-04-28_19h06.23.784,ArchivoPrueba,2024.1.1,None,2024-04-28 19h06.38.729961 -0500,
None,31,purple,0,15,15,15,,,,,,,,,,,,,,,,,,,,,,,205319,001,2024-04-28_19h06.23.784,ArchivoPrueba,2024.1.1,None,2024-04-28 19h06.38.729961 -0500,
¿Recuerda el recorrido que realiza desde su cama hasta la cocina de su residencia?,1,green,0,16,16,16,0,0,0,0,56.018811599999026,,,,,,,,,,,,54.83031779999874,54.88034979999793,55.82101759999932,55.882322899997234,56.018811599999026,56.093174399997224,205319,001,2024-04-28_19h06.23.784,ArchivoPrueba,2024.1.1,None,2024-04-28 19h06.38.729961 -0500,
¿Recuerda el trayecto que hace desde su casa hasta su lugar de trabajo?,3,red,0,16,16,16,0,1,1,1,56.194169800000964,,,,,,,,,,,,,,,56.09540510000079,,56.14407930000016,205319,001,2024-04-28_19h06.23.784,ArchivoPrueba,2024.1.1,None,2024-04-28 19h06.38.729961 -0500,
¿Recuerda  algún inconveniente que ha  experimentado en el camino de su residencia a su lugar de trabajo?,5,white,0,16,16,16,0,2,2,2,56.194169800000964,,,,,,,,,,,,,,,56.1460023000036,,56.158218299999135,205319,001,2024-04-28_19h06.23.784,ArchivoPrueba,2024.1.1,None,2024-04-28 19h06.38.729961 -0500,
¿Recuerda si hay algún lugar u objeto en su camino hacia el trabajo que le llame la atención?,7,blue,0,16,16,16,0,3,3,3,56.194169800000964,,,,,,,,,,,,,,,56.159505000003264,56.194169800000964,56.20238880000397,205319,001,2024-04-28_19h06.23.784,ArchivoPrueba,2024.1.1,None,2024-04-28 19h06.38.729961 -0500,
" ¿Recuerda el recorrido desde la entrada de su lugar de trabajo hasta su oficina, donde realiza sus funciones?",9,yellow,0,16,16,16,0,4,4,4,56.263005200002226,,,,,,,,,,,,,,,56.2028924000042,56.263005200002226,56.30078379999759,205319,001,2024-04-28_19h06.23.784,ArchivoPrueba,2024.1.1,None,2024-04-28 19h06.38.729961 -0500,
¿Recuerda alguna actividad que realice durante los viajes de regreso a casa desde el trabajo para relajarse?,11,orange,0,16,16,16,0,5,5,5,56.32825420000154,,,,,,,,,,,,,,,56.30131470000197,56.32825420000154,56.43337640000391,205319,001,2024-04-28_19h06.23.784,ArchivoPrueba,2024.1.1,None,2024-04-28 19h06.38.729961 -0500,
¿Recuerda el trayecto que realiza desde su casa hasta el lugar donde realiza sus compras?,13,brown,0,16,16,16,0,6,6,6,56.463022900003125,,,,,,,,,,,,,,,56.434578500004136,56.463022900003125,56.52476800000295,205319,001,2024-04-28_19h06.23.784,ArchivoPrueba,2024.1.1,None,2024-04-28 19h06.38.729961 -0500,
¿Recuerda alguna situación divertida o interesante que haya experimentado durante el recorrido hacia el lugar de compras?,15,purple,0,16,16,16,0,7,7,7,56.562226800000644,,,,,,,,,,,,,,,56.52587250000215,56.562226800000644,56.62858530000085,205319,001,2024-04-28_19h06.23.784,ArchivoPrueba,2024.1.1,None,2024-04-28 19h06.38.729961 -0500,
 ¿Recuerda qué es lo primero que ve al llegar al lugar donde realiza sus compras?,17,green,0,16,16,16,0,8,8,8,56.66250500000024,,,,,,,,,,,,,,,56.6301089999979,56.66250500000024,56.708823400003894,205319,001,2024-04-28_19h06.23.784,ArchivoPrueba,2024.1.1,None,2024-04-28 19h06.38.729961 -0500,
¿Recuerda el recorrido desde su residencia hasta el centro de resonancia magnética?,19,red,0,16,16,16,0,9,9,9,56.74571480000304,,,,,,,,,,,,,,,56.70996079999895,56.74571480000304,56.820563300003414,205319,001,2024-04-28_19h06.23.784,ArchivoPrueba,2024.1.1,None,2024-04-28 19h06.38.729961 -0500,
None,21,white,0,16,16,16,0,10,10,10,56.86179500000435,,,,,,,,,,,,,,,56.822292700002436,56.86179500000435,56.910671400000865,205319,001,2024-04-28_19h06.23.784,ArchivoPrueba,2024.1.1,None,2024-04-28 19h06.38.729961 -0500,
None,23,blue,0,16,16,16,0,11,11,11,56.945699100004276,,,,,,,,,,,,,,,56.91242290000082,56.945699100004276,57.02372740000283,205319,001,2024-04-28_19h06.23.784,ArchivoPrueba,2024.1.1,None,2024-04-28 19h06.38.729961 -0500,
None,25,yellow,0,16,16,16,0,12,12,12,57.06214149999869,,,,,,,,,,,,,,,57.024625600002764,57.06214149999869,57.11112370000046,205319,001,2024-04-28_19h06.23.784,ArchivoPrueba,2024.1.1,None,2024-04-28 19h06.38.729961 -0500,
None,27,orange,0,16,16,16,0,13,13,13,57.14564919999975,,,,,,,,,,,,,,,57.112861800000246,57.14564919999975,57.227379299998574,205319,001,2024-04-28_19h06.23.784,ArchivoPrueba,2024.1.1,None,2024-04-28 19h06.38.729961 -0500,
None,29,brown,0,16,16,16,0,14,14,14,57.26189049999812,,,,,,,,,,,,,,,57.22846500000014,57.26189049999812,57.311436000003596,205319,001,2024-04-28_19h06.23.784,ArchivoPrueba,2024.1.1,None,2024-04-28 19h06.38.729961 -0500,
None,31,purple,0,16,16,16,0,15,15,15,57.34521030000178,,,,,,,,,,,,,,,57.31245460000355,57.34521030000178,57.394661400001496,205319,001,2024-04-28_19h06.23.784,ArchivoPrueba,2024.1.1,None,2024-04-28 19h06.38.729961 -0500,
None,33,green,0,16,16,16,0,16,16,16,57.4291544000007,,,,,,,,,,,,,,,57.39573389999714,57.4291544000007,57.51077600000281,205319,001,2024-04-28_19h06.23.784,ArchivoPrueba,2024.1.1,None,2024-04-28 19h06.38.729961 -0500,
None,35,red,0,16,16,16,0,17,17,17,57.54581010000402,,,,,,,,,,,,,,,57.5119537999999,57.54581010000402,57.62814629999775,205319,001,2024-04-28_19h06.23.784,ArchivoPrueba,2024.1.1,None,2024-04-28 19h06.38.729961 -0500,
None,37,white,0,16,16,16,0,18,18,18,57.662336200002756,,,,,,,,,,,,,,,57.629100500002096,57.662336200002756,57.71187610000197,205319,001,2024-04-28_19h06.23.784,ArchivoPrueba,2024.1.1,None,2024-04-28 19h06.38.729961 -0500,
None,39,blue,0,16,16,16,0,19,19,19,57.745600000002014,,,,,,,,,,,,,,,57.71331289999944,57.745600000002014,57.826698800003214,205319,001,2024-04-28_19h06.23.784,ArchivoPrueba,2024.1.1,None,2024-04-28 19h06.38.729961 -0500,
None,33,green,0,16,16,16,,,,,,,,,,,,,,,,,,,,,,,205319,001,2024-04-28_19h06.23.784,ArchivoPrueba,2024.1.1,None,2024-04-28 19h06.38.729961 -0500,
,,,,,,,,,,,57.87896670000191,,,,,,,,,,,,57.82800220000354,57.87896670000191,,,,,,,,,,,,
