PreguntaOn,PreguntaOff,Colors,RepeticionOn.thisRepN,RepeticionOn.thisTrialN,RepeticionOn.thisN,RepeticionOn.thisIndex,trials.thisRepN,trials.thisTrialN,trials.thisN,trials.thisIndex,trials_2.thisRepN,trials_2.thisTrialN,trials_2.thisN,trials_2.thisIndex,trials_3.thisRepN,trials_3.thisTrialN,trials_3.thisN,trials_3.thisIndex,trials_4.thisRepN,trials_4.thisTrialN,trials_4.thisN,trials_4.thisIndex,trials_5.thisRepN,trials_5.thisTrialN,trials_5.thisN,trials_5.thisIndex,thisRow.t,notes,introducción_3.started,introducción.started,mouse.started,introducción_3.stopped,mouse.x,mouse.y,mouse.leftButton,mouse.midButton,mouse.rightButton,mouse.time,On.started,CondicionOn.started,On.stopped,Off.started,CondicionOff.started,Off.stopped,On1.started,text.started,On1.stopped,On2.started,text_2.started,On2.stopped,On3.started,text_3.started,On3.stopped,On4.started,text_4.started,On4.stopped,On5.started,text_5.started,On5.stopped,On6.started,text_6.started,participant,session,date,expName,psychopyVersion,frameRate,expStart,
,,,,,,,,,,,,,,,,,,,,,,,,,,,,,0.03002070000002277,0.05060410000078264,0.02968669999972917,15.371845300000132,[-0.4085648148148148],[0.14467592592592593],[1],[0],[0],[15.341064499998538],,,,,,,,,,,,,,,,,,,,,,,,293388,001,2024-04-30_18h07.01.763,ArchivoPrueba,2024.1.1,None,2024-04-30 18h07.13.339232 -0500,
,,,,,,,,,,,,,,,,,,,,,,,,,,,,,,,,,,,,,,,15.372020099999645,15.398516900000686,35.38748820000001,,,,,,,,,,,,,,,,,,,,,293388,001,2024-04-30_18h07.01.763,ArchivoPrueba,2024.1.1,None,2024-04-30 18h07.13.339232 -0500,
¿Recuerda el recorrido que realiza desde su cama hasta la cocina de su residencia?,1,green,0,0,0,0,,,,,,,,,,,,,,,,,,,,,35.43033550000109,,,,,,,,,,,,,,,35.40101660000073,35.43033550000109,36.386035999999876,,,,,,,,,,,,,,,,,,293388,001,2024-04-30_18h07.01.763,ArchivoPrueba,2024.1.1,None,2024-04-30 18h07.13.339232 -0500,
¿Recuerda el trayecto que hace desde su casa hasta su lugar de trabajo?,3,red,0,1,1,1,,,,,,,,,,,,,,,,,,,,,36.4125925999997,,,,,,,,,,,,,,,36.38630499999999,36.4125925999997,37.40203769999971,,,,,,,,,,,,,,,,,,293388,001,2024-04-30_18h07.01.763,ArchivoPrueba,2024.1.1,None,2024-04-30 18h07.13.339232 -0500,
¿Recuerda  algún inconveniente que ha  experimentado en el camino de su residencia a su lugar de trabajo?,5,white,0,2,2,2,,,,,,,,,,,,,,,,,,,,,37.42840270000124,,,,,,,,,,,,,,,37.40248799999972,37.42840270000124,38.386729200001355,,,,,,,,,,,,,,,,,,293388,001,2024-04-30_18h07.01.763,ArchivoPrueba,2024.1.1,None,2024-04-30 18h07.13.339232 -0500,
¿Recuerda si hay algún lugar u objeto en su camino hacia el trabajo que le llame la atención?,7,blue,0,3,3,3,,,,,,,,,,,,,,,,,,,,,38.41095640000094,,,,,,,,,,,,,,,38.388329299999896,38.41095640000094,39.38563190000059,,,,,,,,,,,,,,,,,,293388,001,2024-04-30_18h07.01.763,ArchivoPrueba,2024.1.1,None,2024-04-30 18h07.13.339232 -0500,
" ¿Recuerda el recorrido desde la entrada de su lugar de trabajo hasta su oficina, donde realiza sus funciones?",9,yellow,0,4,4,4,,,,,,,,,,,,,,,,,,,,,39.410274600000776,,,,,,,,,,,,,,,39.38600360000055,39.410274600000776,40.38472200000069,,,,,,,,,,,,,,,,,,293388,001,2024-04-30_18h07.01.763,ArchivoPrueba,2024.1.1,None,2024-04-30 18h07.13.339232 -0500,
¿Recuerda alguna actividad que realice durante los viajes de regreso a casa desde el trabajo para relajarse?,11,orange,0,5,5,5,,,,,,,,,,,,,,,,,,,,,40.41235140000026,,,,,,,,,,,,,,,40.38510270000006,40.41235140000026,41.383321799999976,,,,,,,,,,,,,,,,,,293388,001,2024-04-30_18h07.01.763,ArchivoPrueba,2024.1.1,None,2024-04-30 18h07.13.339232 -0500,
¿Recuerda el trayecto que realiza desde su casa hasta el lugar donde realiza sus compras?,13,brown,0,6,6,6,,,,,,,,,,,,,,,,,,,,,41.411570300000676,,,,,,,,,,,,,,,41.38359270000001,41.411570300000676,42.38084119999985,,,,,,,,,,,,,,,,,,293388,001,2024-04-30_18h07.01.763,ArchivoPrueba,2024.1.1,None,2024-04-30 18h07.13.339232 -0500,
¿Recuerda alguna situación divertida o interesante que haya experimentado durante el recorrido hacia el lugar de compras?,15,purple,0,7,7,7,,,,,,,,,,,,,,,,,,,,,42.41049600000042,,,,,,,,,,,,,,,42.38111420000132,42.41049600000042,43.381618000001254,,,,,,,,,,,,,,,,,,293388,001,2024-04-30_18h07.01.763,ArchivoPrueba,2024.1.1,None,2024-04-30 18h07.13.339232 -0500,
 ¿Recuerda qué es lo primero que ve al llegar al lugar donde realiza sus compras?,17,green,0,8,8,8,,,,,,,,,,,,,,,,,,,,,43.409917200000564,,,,,,,,,,,,,,,43.381883000000016,43.409917200000564,44.380759800000305,,,,,,,,,,,,,,,,,,293388,001,2024-04-30_18h07.01.763,ArchivoPrueba,2024.1.1,None,2024-04-30 18h07.13.339232 -0500,
¿Recuerda el recorrido desde su residencia hasta el centro de resonancia magnética?,19,red,0,9,9,9,,,,,,,,,,,,,,,,,,,,,44.40908930000114,,,,,,,,,,,,,,,44.381026900000506,44.40908930000114,45.39441020000049,,,,,,,,,,,,,,,,,,293388,001,2024-04-30_18h07.01.763,ArchivoPrueba,2024.1.1,None,2024-04-30 18h07.13.339232 -0500,
None,21,white,0,10,10,10,,,,,,,,,,,,,,,,,,,,,45.421427200000835,,,,,,,,,,,,,,,45.394771799999944,45.421427200000835,46.37690040000052,,,,,,,,,,,,,,,,,,293388,001,2024-04-30_18h07.01.763,ArchivoPrueba,2024.1.1,None,2024-04-30 18h07.13.339232 -0500,
None,23,blue,0,11,11,11,,,,,,,,,,,,,,,,,,,,,46.406955200000084,,,,,,,,,,,,,,,46.37726520000069,46.406955200000084,47.39291310000044,,,,,,,,,,,,,,,,,,293388,001,2024-04-30_18h07.01.763,ArchivoPrueba,2024.1.1,None,2024-04-30 18h07.13.339232 -0500,
None,25,yellow,0,12,12,12,,,,,,,,,,,,,,,,,,,,,47.42238410000027,,,,,,,,,,,,,,,47.39329540000108,47.42238410000027,48.37751010000102,,,,,,,,,,,,,,,,,,293388,001,2024-04-30_18h07.01.763,ArchivoPrueba,2024.1.1,None,2024-04-30 18h07.13.339232 -0500,
None,27,orange,0,13,13,13,,,,,,,,,,,,,,,,,,,,,48.40554490000068,,,,,,,,,,,,,,,48.37779800000135,48.40554490000068,49.39147100000082,,,,,,,,,,,,,,,,,,293388,001,2024-04-30_18h07.01.763,ArchivoPrueba,2024.1.1,None,2024-04-30 18h07.13.339232 -0500,
None,29,brown,0,14,14,14,,,,,,,,,,,,,,,,,,,,,49.421083799999906,,,,,,,,,,,,,,,49.391734599999836,49.421083799999906,50.3916132000013,,,,,,,,,,,,,,,,,,293388,001,2024-04-30_18h07.01.763,ArchivoPrueba,2024.1.1,None,2024-04-30 18h07.13.339232 -0500,
None,31,purple,0,15,15,15,,,,,,,,,,,,,,,,,,,,,50.42133130000002,,,,,,,,,,,,,,,50.39204950000021,50.42133130000002,51.37516340000002,,,,,,,,,,,,,,,,,,293388,001,2024-04-30_18h07.01.763,ArchivoPrueba,2024.1.1,None,2024-04-30 18h07.13.339232 -0500,
None,33,green,0,16,16,16,,,,,,,,,,,,,,,,,,,,,51.402762699999585,,,,,,,,,,,,,,,51.375609599999734,51.402762699999585,52.37248780000118,,,,,,,,,,,,,,,,,,293388,001,2024-04-30_18h07.01.763,ArchivoPrueba,2024.1.1,None,2024-04-30 18h07.13.339232 -0500,
None,35,red,0,17,17,17,,,,,,,,,,,,,,,,,,,,,52.40199340000072,,,,,,,,,,,,,,,52.37280880000071,52.40199340000072,53.37317540000004,,,,,,,,,,,,,,,,,,293388,001,2024-04-30_18h07.01.763,ArchivoPrueba,2024.1.1,None,2024-04-30 18h07.13.339232 -0500,
None,37,white,0,18,18,18,,,,,,,,,,,,,,,,,,,,,53.401260900000125,,,,,,,,,,,,,,,53.37360090000038,53.401260900000125,54.38912490000075,,,,,,,,,,,,,,,,,,293388,001,2024-04-30_18h07.01.763,ArchivoPrueba,2024.1.1,None,2024-04-30 18h07.13.339232 -0500,
None,39,blue,0,19,19,19,,,,,,,,,,,,,,,,,,,,,54.416689400000905,,,,,,,,,,,,,,,54.38967720000073,54.416689400000905,55.37217000000055,,,,,,,,,,,,,,,,,,293388,001,2024-04-30_18h07.01.763,ArchivoPrueba,2024.1.1,None,2024-04-30 18h07.13.339232 -0500,
,,,,,,,,,,,,,,,,,,,,,,,,,,,,,,,,,,,,,,,,,,,,,55.37227390000044,55.39944310000101,75.38821880000069,,,,,,,,,,,,,,,293388,001,2024-04-30_18h07.01.763,ArchivoPrueba,2024.1.1,None,2024-04-30 18h07.13.339232 -0500,
¿Recuerda el recorrido que realiza desde su cama hasta la cocina de su residencia?,1,green,,,,,0,0,0,0,,,,,,,,,,,,,,,,,75.43226350000077,,,,,,,,,,,,,,,75.40035970000099,75.43226350000077,76.38653010000053,,,,,,,,,,,,,,,,,,293388,001,2024-04-30_18h07.01.763,ArchivoPrueba,2024.1.1,None,2024-04-30 18h07.13.339232 -0500,
¿Recuerda el trayecto que hace desde su casa hasta su lugar de trabajo?,3,red,,,,,0,1,1,1,,,,,,,,,,,,,,,,,76.41446890000043,,,,,,,,,,,,,,,76.38681660000111,76.41446890000043,77.38367050000124,,,,,,,,,,,,,,,,,,293388,001,2024-04-30_18h07.01.763,ArchivoPrueba,2024.1.1,None,2024-04-30 18h07.13.339232 -0500,
¿Recuerda  algún inconveniente que ha  experimentado en el camino de su residencia a su lugar de trabajo?,5,white,,,,,0,2,2,2,,,,,,,,,,,,,,,,,77.41356720000113,,,,,,,,,,,,,,,77.38402719999976,77.41356720000113,78.38509169999998,,,,,,,,,,,,,,,,,,293388,001,2024-04-30_18h07.01.763,ArchivoPrueba,2024.1.1,None,2024-04-30 18h07.13.339232 -0500,
¿Recuerda si hay algún lugar u objeto en su camino hacia el trabajo que le llame la atención?,7,blue,,,,,0,3,3,3,,,,,,,,,,,,,,,,,78.41261260000101,,,,,,,,,,,,,,,78.38555890000134,78.41261260000101,79.38248000000021,,,,,,,,,,,,,,,,,,293388,001,2024-04-30_18h07.01.763,ArchivoPrueba,2024.1.1,None,2024-04-30 18h07.13.339232 -0500,
" ¿Recuerda el recorrido desde la entrada de su lugar de trabajo hasta su oficina, donde realiza sus funciones?",9,yellow,,,,,0,4,4,4,,,,,,,,,,,,,,,,,79.41150010000092,,,,,,,,,,,,,,,79.38279599999987,79.41150010000092,80.38309420000041,,,,,,,,,,,,,,,,,,293388,001,2024-04-30_18h07.01.763,ArchivoPrueba,2024.1.1,None,2024-04-30 18h07.13.339232 -0500,
¿Recuerda alguna actividad que realice durante los viajes de regreso a casa desde el trabajo para relajarse?,11,orange,,,,,0,5,5,5,,,,,,,,,,,,,,,,,80.41059260000111,,,,,,,,,,,,,,,80.38341720000062,80.41059260000111,81.39698060000046,,,,,,,,,,,,,,,,,,293388,001,2024-04-30_18h07.01.763,ArchivoPrueba,2024.1.1,None,2024-04-30 18h07.13.339232 -0500,
¿Recuerda el trayecto que realiza desde su casa hasta el lugar donde realiza sus compras?,13,brown,,,,,0,6,6,6,,,,,,,,,,,,,,,,,81.42666389999977,,,,,,,,,,,,,,,81.3973156000011,81.42666389999977,82.38113970000086,,,,,,,,,,,,,,,,,,293388,001,2024-04-30_18h07.01.763,ArchivoPrueba,2024.1.1,None,2024-04-30 18h07.13.339232 -0500,
¿Recuerda alguna situación divertida o interesante que haya experimentado durante el recorrido hacia el lugar de compras?,15,purple,,,,,0,7,7,7,,,,,,,,,,,,,,,,,82.40926320000108,,,,,,,,,,,,,,,82.38140440000097,82.40926320000108,83.39514650000092,,,,,,,,,,,,,,,,,,293388,001,2024-04-30_18h07.01.763,ArchivoPrueba,2024.1.1,None,2024-04-30 18h07.13.339232 -0500,
 ¿Recuerda qué es lo primero que ve al llegar al lugar donde realiza sus compras?,17,green,,,,,0,8,8,8,,,,,,,,,,,,,,,,,83.42483750000065,,,,,,,,,,,,,,,83.39548540000033,83.42483750000065,84.37732620000133,,,,,,,,,,,,,,,,,,293388,001,2024-04-30_18h07.01.763,ArchivoPrueba,2024.1.1,None,2024-04-30 18h07.13.339232 -0500,
¿Recuerda el recorrido desde su residencia hasta el centro de resonancia magnética?,19,red,,,,,0,9,9,9,,,,,,,,,,,,,,,,,84.4068395000013,,,,,,,,,,,,,,,84.37763600000108,84.4068395000013,85.37689580000006,,,,,,,,,,,,,,,,,,293388,001,2024-04-30_18h07.01.763,ArchivoPrueba,2024.1.1,None,2024-04-30 18h07.13.339232 -0500,
None,21,white,,,,,0,10,10,10,,,,,,,,,,,,,,,,,85.40601070000048,,,,,,,,,,,,,,,85.37717690000136,85.40601070000048,86.37701630000083,,,,,,,,,,,,,,,,,,293388,001,2024-04-30_18h07.01.763,ArchivoPrueba,2024.1.1,None,2024-04-30 18h07.13.339232 -0500,
None,23,blue,,,,,0,11,11,11,,,,,,,,,,,,,,,,,86.40566849999959,,,,,,,,,,,,,,,86.37733740000112,86.40566849999959,87.37492500000008,,,,,,,,,,,,,,,,,,293388,001,2024-04-30_18h07.01.763,ArchivoPrueba,2024.1.1,None,2024-04-30 18h07.13.339232 -0500,
None,25,yellow,,,,,0,12,12,12,,,,,,,,,,,,,,,,,87.40436899999986,,,,,,,,,,,,,,,87.37524570000096,87.40436899999986,88.37418880000041,,,,,,,,,,,,,,,,,,293388,001,2024-04-30_18h07.01.763,ArchivoPrueba,2024.1.1,None,2024-04-30 18h07.13.339232 -0500,
None,27,orange,,,,,0,13,13,13,,,,,,,,,,,,,,,,,88.40330300000096,,,,,,,,,,,,,,,88.37448949999998,88.40330300000096,89.37298590000137,,,,,,,,,,,,,,,,,,293388,001,2024-04-30_18h07.01.763,ArchivoPrueba,2024.1.1,None,2024-04-30 18h07.13.339232 -0500,
None,29,brown,,,,,0,14,14,14,,,,,,,,,,,,,,,,,89.40247520000048,,,,,,,,,,,,,,,89.37331170000107,89.40247520000048,90.39051720000134,,,,,,,,,,,,,,,,,,293388,001,2024-04-30_18h07.01.763,ArchivoPrueba,2024.1.1,None,2024-04-30 18h07.13.339232 -0500,
None,31,purple,,,,,0,15,15,15,,,,,,,,,,,,,,,,,90.41832799999975,,,,,,,,,,,,,,,90.39080520000061,90.41832799999975,91.38972819999981,,,,,,,,,,,,,,,,,,293388,001,2024-04-30_18h07.01.763,ArchivoPrueba,2024.1.1,None,2024-04-30 18h07.13.339232 -0500,
None,33,green,,,,,0,16,16,16,,,,,,,,,,,,,,,,,91.417142100001,,,,,,,,,,,,,,,91.39004490000116,91.417142100001,92.40334509999957,,,,,,,,,,,,,,,,,,293388,001,2024-04-30_18h07.01.763,ArchivoPrueba,2024.1.1,None,2024-04-30 18h07.13.339232 -0500,
None,35,red,,,,,0,17,17,17,,,,,,,,,,,,,,,,,92.4332245000005,,,,,,,,,,,,,,,92.4036500000002,92.4332245000005,93.38759220000065,,,,,,,,,,,,,,,,,,293388,001,2024-04-30_18h07.01.763,ArchivoPrueba,2024.1.1,None,2024-04-30 18h07.13.339232 -0500,
None,37,white,,,,,0,18,18,18,,,,,,,,,,,,,,,,,93.41552130000127,,,,,,,,,,,,,,,93.3879066999998,93.41552130000127,94.38652430000002,,,,,,,,,,,,,,,,,,293388,001,2024-04-30_18h07.01.763,ArchivoPrueba,2024.1.1,None,2024-04-30 18h07.13.339232 -0500,
None,39,blue,,,,,0,19,19,19,,,,,,,,,,,,,,,,,94.41452750000099,,,,,,,,,,,,,,,94.3868523000001,94.41452750000099,95.40113329999986,,,,,,,,,,,,,,,,,,293388,001,2024-04-30_18h07.01.763,ArchivoPrueba,2024.1.1,None,2024-04-30 18h07.13.339232 -0500,
,,,,,,,,,,,,,,,,,,,,,,,,,,,,,,,,,,,,,,,,,,,,,,,,95.40119140000024,95.41600800000015,115.40110249999998,,,,,,,,,,,,293388,001,2024-04-30_18h07.01.763,ArchivoPrueba,2024.1.1,None,2024-04-30 18h07.13.339232 -0500,
¿Recuerda el recorrido que realiza desde su cama hasta la cocina de su residencia?,1,green,,,,,,,,,0,0,0,0,,,,,,,,,,,,,115.42968790000123,,,,,,,,,,,,,,,115.41439859999991,115.42968790000123,116.39889930000027,,,,,,,,,,,,,,,,,,293388,001,2024-04-30_18h07.01.763,ArchivoPrueba,2024.1.1,None,2024-04-30 18h07.13.339232 -0500,
¿Recuerda el trayecto que hace desde su casa hasta su lugar de trabajo?,3,red,,,,,,,,,0,1,1,1,,,,,,,,,,,,,116.42866330000106,,,,,,,,,,,,,,,116.39915939999992,116.42866330000106,117.3986447999996,,,,,,,,,,,,,,,,,,293388,001,2024-04-30_18h07.01.763,ArchivoPrueba,2024.1.1,None,2024-04-30 18h07.13.339232 -0500,
¿Recuerda  algún inconveniente que ha  experimentado en el camino de su residencia a su lugar de trabajo?,5,white,,,,,,,,,0,2,2,2,,,,,,,,,,,,,117.42870109999967,,,,,,,,,,,,,,,117.39890820000073,117.42870109999967,118.39713850000044,,,,,,,,,,,,,,,,,,293388,001,2024-04-30_18h07.01.763,ArchivoPrueba,2024.1.1,None,2024-04-30 18h07.13.339232 -0500,
¿Recuerda si hay algún lugar u objeto en su camino hacia el trabajo que le llame la atención?,7,blue,,,,,,,,,0,3,3,3,,,,,,,,,,,,,118.42714920000071,,,,,,,,,,,,,,,118.39751009999964,118.42714920000071,119.38003720000052,,,,,,,,,,,,,,,,,,293388,001,2024-04-30_18h07.01.763,ArchivoPrueba,2024.1.1,None,2024-04-30 18h07.13.339232 -0500,
" ¿Recuerda el recorrido desde la entrada de su lugar de trabajo hasta su oficina, donde realiza sus funciones?",9,yellow,,,,,,,,,0,4,4,4,,,,,,,,,,,,,119.4099796999999,,,,,,,,,,,,,,,119.3803540000008,119.4099796999999,120.37996730000123,,,,,,,,,,,,,,,,,,293388,001,2024-04-30_18h07.01.763,ArchivoPrueba,2024.1.1,None,2024-04-30 18h07.13.339232 -0500,
¿Recuerda alguna actividad que realice durante los viajes de regreso a casa desde el trabajo para relajarse?,11,orange,,,,,,,,,0,5,5,5,,,,,,,,,,,,,120.4089655000007,,,,,,,,,,,,,,,120.38029110000025,120.4089655000007,121.39482570000109,,,,,,,,,,,,,,,,,,293388,001,2024-04-30_18h07.01.763,ArchivoPrueba,2024.1.1,None,2024-04-30 18h07.13.339232 -0500,
¿Recuerda el trayecto que realiza desde su casa hasta el lugar donde realiza sus compras?,13,brown,,,,,,,,,0,6,6,6,,,,,,,,,,,,,121.42433379999966,,,,,,,,,,,,,,,121.39517420000084,121.42433379999966,122.39445429999978,,,,,,,,,,,,,,,,,,293388,001,2024-04-30_18h07.01.763,ArchivoPrueba,2024.1.1,None,2024-04-30 18h07.13.339232 -0500,
¿Recuerda alguna situación divertida o interesante que haya experimentado durante el recorrido hacia el lugar de compras?,15,purple,,,,,,,,,0,7,7,7,,,,,,,,,,,,,122.42347370000061,,,,,,,,,,,,,,,122.39471290000074,122.42347370000061,123.37810170000012,,,,,,,,,,,,,,,,,,293388,001,2024-04-30_18h07.01.763,ArchivoPrueba,2024.1.1,None,2024-04-30 18h07.13.339232 -0500,
 ¿Recuerda qué es lo primero que ve al llegar al lugar donde realiza sus compras?,17,green,,,,,,,,,0,8,8,8,,,,,,,,,,,,,123.40619850000076,,,,,,,,,,,,,,,123.37846759999957,123.40619850000076,124.3762110000007,,,,,,,,,,,,,,,,,,293388,001,2024-04-30_18h07.01.763,ArchivoPrueba,2024.1.1,None,2024-04-30 18h07.13.339232 -0500,
¿Recuerda el recorrido desde su residencia hasta el centro de resonancia magnética?,19,red,,,,,,,,,0,9,9,9,,,,,,,,,,,,,124.40559539999958,,,,,,,,,,,,,,,124.37652450000132,124.40559539999958,125.37630710000121,,,,,,,,,,,,,,,,,,293388,001,2024-04-30_18h07.01.763,ArchivoPrueba,2024.1.1,None,2024-04-30 18h07.13.339232 -0500,
None,21,white,,,,,,,,,0,10,10,10,,,,,,,,,,,,,125.40442340000118,,,,,,,,,,,,,,,125.37666569999965,125.40442340000118,126.39067280000017,,,,,,,,,,,,,,,,,,293388,001,2024-04-30_18h07.01.763,ArchivoPrueba,2024.1.1,None,2024-04-30 18h07.13.339232 -0500,
None,23,blue,,,,,,,,,0,11,11,11,,,,,,,,,,,,,126.42037210000126,,,,,,,,,,,,,,,126.39097480000055,126.42037210000126,127.37316230000033,,,,,,,,,,,,,,,,,,293388,001,2024-04-30_18h07.01.763,ArchivoPrueba,2024.1.1,None,2024-04-30 18h07.13.339232 -0500,
None,25,yellow,,,,,,,,,0,12,12,12,,,,,,,,,,,,,127.40296810000109,,,,,,,,,,,,,,,127.37344320000011,127.40296810000109,128.38929720000124,,,,,,,,,,,,,,,,,,293388,001,2024-04-30_18h07.01.763,ArchivoPrueba,2024.1.1,None,2024-04-30 18h07.13.339232 -0500,
None,27,orange,,,,,,,,,0,13,13,13,,,,,,,,,,,,,128.41632600000048,,,,,,,,,,,,,,,128.3895872000012,128.41632600000048,129.38960450000013,,,,,,,,,,,,,,,,,,293388,001,2024-04-30_18h07.01.763,ArchivoPrueba,2024.1.1,None,2024-04-30 18h07.13.339232 -0500,
None,29,brown,,,,,,,,,0,14,14,14,,,,,,,,,,,,,129.41813449999972,,,,,,,,,,,,,,,129.3899805000001,129.41813449999972,130.3858562000005,,,,,,,,,,,,,,,,,,293388,001,2024-04-30_18h07.01.763,ArchivoPrueba,2024.1.1,None,2024-04-30 18h07.13.339232 -0500,
None,31,purple,,,,,,,,,0,15,15,15,,,,,,,,,,,,,130.41512140000123,,,,,,,,,,,,,,,130.38611730000048,130.41512140000123,131.3847454000006,,,,,,,,,,,,,,,,,,293388,001,2024-04-30_18h07.01.763,ArchivoPrueba,2024.1.1,None,2024-04-30 18h07.13.339232 -0500,
None,33,green,,,,,,,,,0,16,16,16,,,,,,,,,,,,,131.41387329999998,,,,,,,,,,,,,,,131.38501130000077,131.41387329999998,132.38408909999998,,,,,,,,,,,,,,,,,,293388,001,2024-04-30_18h07.01.763,ArchivoPrueba,2024.1.1,None,2024-04-30 18h07.13.339232 -0500,
None,35,red,,,,,,,,,0,17,17,17,,,,,,,,,,,,,132.41324480000003,,,,,,,,,,,,,,,132.38438719999976,132.41324480000003,133.38277689999995,,,,,,,,,,,,,,,,,,293388,001,2024-04-30_18h07.01.763,ArchivoPrueba,2024.1.1,None,2024-04-30 18h07.13.339232 -0500,
None,37,white,,,,,,,,,0,18,18,18,,,,,,,,,,,,,133.41211710000061,,,,,,,,,,,,,,,133.383089500001,133.41211710000061,134.3832510000011,,,,,,,,,,,,,,,,,,293388,001,2024-04-30_18h07.01.763,ArchivoPrueba,2024.1.1,None,2024-04-30 18h07.13.339232 -0500,
None,39,blue,,,,,,,,,0,19,19,19,,,,,,,,,,,,,134.4119728000005,,,,,,,,,,,,,,,134.3835104000009,134.4119728000005,135.38104910000038,,,,,,,,,,,,,,,,,,293388,001,2024-04-30_18h07.01.763,ArchivoPrueba,2024.1.1,None,2024-04-30 18h07.13.339232 -0500,
,,,,,,,,,,,,,,,,,,,,,,,,,,,,,,,,,,,,,,,,,,,,,,,,,,,135.38112739999997,135.39459270000043,155.38021610000033,,,,,,,,,293388,001,2024-04-30_18h07.01.763,ArchivoPrueba,2024.1.1,None,2024-04-30 18h07.13.339232 -0500,
¿Recuerda el recorrido que realiza desde su cama hasta la cocina de su residencia?,1,green,,,,,,,,,,,,,0,0,0,0,,,,,,,,,155.40947250000136,,,,,,,,,,,,,,,155.3903338,155.40947250000136,156.37970020000103,,,,,,,,,,,,,,,,,,293388,001,2024-04-30_18h07.01.763,ArchivoPrueba,2024.1.1,None,2024-04-30 18h07.13.339232 -0500,
¿Recuerda el trayecto que hace desde su casa hasta su lugar de trabajo?,3,red,,,,,,,,,,,,,0,1,1,1,,,,,,,,,156.4090756000005,,,,,,,,,,,,,,,156.37996779999958,156.4090756000005,157.37891579999996,,,,,,,,,,,,,,,,,,293388,001,2024-04-30_18h07.01.763,ArchivoPrueba,2024.1.1,None,2024-04-30 18h07.13.339232 -0500,
¿Recuerda  algún inconveniente que ha  experimentado en el camino de su residencia a su lugar de trabajo?,5,white,,,,,,,,,,,,,0,2,2,2,,,,,,,,,157.40799069999957,,,,,,,,,,,,,,,157.37921020000067,157.40799069999957,158.37761880000107,,,,,,,,,,,,,,,,,,293388,001,2024-04-30_18h07.01.763,ArchivoPrueba,2024.1.1,None,2024-04-30 18h07.13.339232 -0500,
¿Recuerda si hay algún lugar u objeto en su camino hacia el trabajo que le llame la atención?,7,blue,,,,,,,,,,,,,0,3,3,3,,,,,,,,,158.40688190000037,,,,,,,,,,,,,,,158.37790789999963,158.40688190000037,159.37739130000045,,,,,,,,,,,,,,,,,,293388,001,2024-04-30_18h07.01.763,ArchivoPrueba,2024.1.1,None,2024-04-30 18h07.13.339232 -0500,
" ¿Recuerda el recorrido desde la entrada de su lugar de trabajo hasta su oficina, donde realiza sus funciones?",9,yellow,,,,,,,,,,,,,0,4,4,4,,,,,,,,,159.40638279999985,,,,,,,,,,,,,,,159.37776190000113,159.40638279999985,160.37730890000057,,,,,,,,,,,,,,,,,,293388,001,2024-04-30_18h07.01.763,ArchivoPrueba,2024.1.1,None,2024-04-30 18h07.13.339232 -0500,
¿Recuerda alguna actividad que realice durante los viajes de regreso a casa desde el trabajo para relajarse?,11,orange,,,,,,,,,,,,,0,5,5,5,,,,,,,,,160.40527269999984,,,,,,,,,,,,,,,160.37767030000032,160.40527269999984,161.37534250000135,,,,,,,,,,,,,,,,,,293388,001,2024-04-30_18h07.01.763,ArchivoPrueba,2024.1.1,None,2024-04-30 18h07.13.339232 -0500,
¿Recuerda el trayecto que realiza desde su casa hasta el lugar donde realiza sus compras?,13,brown,,,,,,,,,,,,,0,6,6,6,,,,,,,,,161.4043373000004,,,,,,,,,,,,,,,161.37560750000011,161.4043373000004,162.37619310000082,,,,,,,,,,,,,,,,,,293388,001,2024-04-30_18h07.01.763,ArchivoPrueba,2024.1.1,None,2024-04-30 18h07.13.339232 -0500,
¿Recuerda alguna situación divertida o interesante que haya experimentado durante el recorrido hacia el lugar de compras?,15,purple,,,,,,,,,,,,,0,7,7,7,,,,,,,,,162.40379670000038,,,,,,,,,,,,,,,162.37651870000082,162.40379670000038,163.37413809999998,,,,,,,,,,,,,,,,,,293388,001,2024-04-30_18h07.01.763,ArchivoPrueba,2024.1.1,None,2024-04-30 18h07.13.339232 -0500,
 ¿Recuerda qué es lo primero que ve al llegar al lugar donde realiza sus compras?,17,green,,,,,,,,,,,,,0,8,8,8,,,,,,,,,163.40243519999967,,,,,,,,,,,,,,,163.374509700001,163.40243519999967,164.38844120000067,,,,,,,,,,,,,,,,,,293388,001,2024-04-30_18h07.01.763,ArchivoPrueba,2024.1.1,None,2024-04-30 18h07.13.339232 -0500,
¿Recuerda el recorrido desde su residencia hasta el centro de resonancia magnética?,19,red,,,,,,,,,,,,,0,9,9,9,,,,,,,,,164.41136300000107,,,,,,,,,,,,,,,164.38872420000007,164.41136300000107,165.39911500000017,,,,,,,,,,,,,,,,,,293388,001,2024-04-30_18h07.01.763,ArchivoPrueba,2024.1.1,None,2024-04-30 18h07.13.339232 -0500,
None,21,white,,,,,,,,,,,,,0,10,10,10,,,,,,,,,165.42773900000066,,,,,,,,,,,,,,,165.39942540000084,165.42773900000066,166.39713959999972,,,,,,,,,,,,,,,,,,293388,001,2024-04-30_18h07.01.763,ArchivoPrueba,2024.1.1,None,2024-04-30 18h07.13.339232 -0500,
None,23,blue,,,,,,,,,,,,,0,11,11,11,,,,,,,,,166.41434020000088,,,,,,,,,,,,,,,166.3975045999996,166.41434020000088,167.38872249999986,,,,,,,,,,,,,,,,,,293388,001,2024-04-30_18h07.01.763,ArchivoPrueba,2024.1.1,None,2024-04-30 18h07.13.339232 -0500,
None,25,yellow,,,,,,,,,,,,,0,12,12,12,,,,,,,,,167.41560449999997,,,,,,,,,,,,,,,167.38909870000134,167.41560449999997,168.3848936000013,,,,,,,,,,,,,,,,,,293388,001,2024-04-30_18h07.01.763,ArchivoPrueba,2024.1.1,None,2024-04-30 18h07.13.339232 -0500,
None,27,orange,,,,,,,,,,,,,0,13,13,13,,,,,,,,,168.41391850000036,,,,,,,,,,,,,,,168.38516490000075,168.41391850000036,169.3794506000013,,,,,,,,,,,,,,,,,,293388,001,2024-04-30_18h07.01.763,ArchivoPrueba,2024.1.1,None,2024-04-30 18h07.13.339232 -0500,
None,29,brown,,,,,,,,,,,,,0,14,14,14,,,,,,,,,169.39655959999982,,,,,,,,,,,,,,,169.3797814999998,169.39655959999982,170.3939891000009,,,,,,,,,,,,,,,,,,293388,001,2024-04-30_18h07.01.763,ArchivoPrueba,2024.1.1,None,2024-04-30 18h07.13.339232 -0500,
None,31,purple,,,,,,,,,,,,,0,15,15,15,,,,,,,,,170.4112709000001,,,,,,,,,,,,,,,170.39452640000127,170.4112709000001,171.3784983000005,,,,,,,,,,,,,,,,,,293388,001,2024-04-30_18h07.01.763,ArchivoPrueba,2024.1.1,None,2024-04-30 18h07.13.339232 -0500,
None,33,green,,,,,,,,,,,,,0,16,16,16,,,,,,,,,171.42011960000127,,,,,,,,,,,,,,,171.37917870000092,171.42011960000127,172.3830822,,,,,,,,,,,,,,,,,,293388,001,2024-04-30_18h07.01.763,ArchivoPrueba,2024.1.1,None,2024-04-30 18h07.13.339232 -0500,
None,35,red,,,,,,,,,,,,,0,17,17,17,,,,,,,,,172.4124350000002,,,,,,,,,,,,,,,172.38334750000104,172.4124350000002,173.39080000000104,,,,,,,,,,,,,,,,,,293388,001,2024-04-30_18h07.01.763,ArchivoPrueba,2024.1.1,None,2024-04-30 18h07.13.339232 -0500,
None,37,white,,,,,,,,,,,,,0,18,18,18,,,,,,,,,173.41340870000022,,,,,,,,,,,,,,,173.391111500001,173.41340870000022,174.37905520000095,,,,,,,,,,,,,,,,,,293388,001,2024-04-30_18h07.01.763,ArchivoPrueba,2024.1.1,None,2024-04-30 18h07.13.339232 -0500,
None,39,blue,,,,,,,,,,,,,0,19,19,19,,,,,,,,,174.4197519999998,,,,,,,,,,,,,,,174.37940300000082,174.4197519999998,175.3927629000009,,,,,,,,,,,,,,,,,,293388,001,2024-04-30_18h07.01.763,ArchivoPrueba,2024.1.1,None,2024-04-30 18h07.13.339232 -0500,
,,,,,,,,,,,,,,,,,,,,,,,,,,,,,,,,,,,,,,,,,,,,,,,,,,,,,,175.39285430000018,175.4100113000004,195.37876359999973,,,,,,293388,001,2024-04-30_18h07.01.763,ArchivoPrueba,2024.1.1,None,2024-04-30 18h07.13.339232 -0500,
¿Recuerda el recorrido que realiza desde su cama hasta la cocina de su residencia?,1,green,,,,,,,,,,,,,,,,,0,0,0,0,,,,,195.40839369999958,,,,,,,,,,,,,,,195.3922629000008,195.40839369999958,196.38210590000017,,,,,,,,,,,,,,,,,,293388,001,2024-04-30_18h07.01.763,ArchivoPrueba,2024.1.1,None,2024-04-30 18h07.13.339232 -0500,
¿Recuerda el trayecto que hace desde su casa hasta su lugar de trabajo?,3,red,,,,,,,,,,,,,,,,,0,1,1,1,,,,,196.40771140000106,,,,,,,,,,,,,,,196.38308359999974,196.40771140000106,197.39376730000004,,,,,,,,,,,,,,,,,,293388,001,2024-04-30_18h07.01.763,ArchivoPrueba,2024.1.1,None,2024-04-30 18h07.13.339232 -0500,
¿Recuerda  algún inconveniente que ha  experimentado en el camino de su residencia a su lugar de trabajo?,5,white,,,,,,,,,,,,,,,,,0,2,2,2,,,,,197.42349149999973,,,,,,,,,,,,,,,197.3940616,197.42349149999973,198.37649630000124,,,,,,,,,,,,,,,,,,293388,001,2024-04-30_18h07.01.763,ArchivoPrueba,2024.1.1,None,2024-04-30 18h07.13.339232 -0500,
¿Recuerda si hay algún lugar u objeto en su camino hacia el trabajo que le llame la atención?,7,blue,,,,,,,,,,,,,,,,,0,3,3,3,,,,,198.40602730000137,,,,,,,,,,,,,,,198.37678360000064,198.40602730000137,199.3797314000003,,,,,,,,,,,,,,,,,,293388,001,2024-04-30_18h07.01.763,ArchivoPrueba,2024.1.1,None,2024-04-30 18h07.13.339232 -0500,
" ¿Recuerda el recorrido desde la entrada de su lugar de trabajo hasta su oficina, donde realiza sus funciones?",9,yellow,,,,,,,,,,,,,,,,,0,4,4,4,,,,,199.40551539999979,,,,,,,,,,,,,,,199.38029590000042,199.40551539999979,200.3916373000011,,,,,,,,,,,,,,,,,,293388,001,2024-04-30_18h07.01.763,ArchivoPrueba,2024.1.1,None,2024-04-30 18h07.13.339232 -0500,
¿Recuerda alguna actividad que realice durante los viajes de regreso a casa desde el trabajo para relajarse?,11,orange,,,,,,,,,,,,,,,,,0,5,5,5,,,,,200.42082219999975,,,,,,,,,,,,,,,200.3919007000004,200.42082219999975,201.37442510000074,,,,,,,,,,,,,,,,,,293388,001,2024-04-30_18h07.01.763,ArchivoPrueba,2024.1.1,None,2024-04-30 18h07.13.339232 -0500,
¿Recuerda el trayecto que realiza desde su casa hasta el lugar donde realiza sus compras?,13,brown,,,,,,,,,,,,,,,,,0,6,6,6,,,,,201.40340790000118,,,,,,,,,,,,,,,201.37471030000052,201.40340790000118,202.37658790000023,,,,,,,,,,,,,,,,,,293388,001,2024-04-30_18h07.01.763,ArchivoPrueba,2024.1.1,None,2024-04-30 18h07.13.339232 -0500,
¿Recuerda alguna situación divertida o interesante que haya experimentado durante el recorrido hacia el lugar de compras?,15,purple,,,,,,,,,,,,,,,,,0,7,7,7,,,,,202.40263229999982,,,,,,,,,,,,,,,202.37690450000082,202.40263229999982,203.3763583,,,,,,,,,,,,,,,,,,293388,001,2024-04-30_18h07.01.763,ArchivoPrueba,2024.1.1,None,2024-04-30 18h07.13.339232 -0500,
 ¿Recuerda qué es lo primero que ve al llegar al lugar donde realiza sus compras?,17,green,,,,,,,,,,,,,,,,,0,8,8,8,,,,,203.40165850000085,,,,,,,,,,,,,,,203.37693870000112,203.40165850000085,204.38752360000035,,,,,,,,,,,,,,,,,,293388,001,2024-04-30_18h07.01.763,ArchivoPrueba,2024.1.1,None,2024-04-30 18h07.13.339232 -0500,
¿Recuerda el recorrido desde su residencia hasta el centro de resonancia magnética?,19,red,,,,,,,,,,,,,,,,,0,9,9,9,,,,,204.4174253000001,,,,,,,,,,,,,,,204.38782420000098,204.4174253000001,205.39053100000092,,,,,,,,,,,,,,,,,,293388,001,2024-04-30_18h07.01.763,ArchivoPrueba,2024.1.1,None,2024-04-30 18h07.13.339232 -0500,
None,21,white,,,,,,,,,,,,,,,,,0,10,10,10,,,,,205.4167647000013,,,,,,,,,,,,,,,205.39079310000125,205.4167647000013,206.373168600001,,,,,,,,,,,,,,,,,,293388,001,2024-04-30_18h07.01.763,ArchivoPrueba,2024.1.1,None,2024-04-30 18h07.13.339232 -0500,
None,23,blue,,,,,,,,,,,,,,,,,0,11,11,11,,,,,206.39864080000007,,,,,,,,,,,,,,,206.37352029999965,206.39864080000007,207.38918310000008,,,,,,,,,,,,,,,,,,293388,001,2024-04-30_18h07.01.763,ArchivoPrueba,2024.1.1,None,2024-04-30 18h07.13.339232 -0500,
None,25,yellow,,,,,,,,,,,,,,,,,0,12,12,12,,,,,207.4147780000003,,,,,,,,,,,,,,,207.3897624000001,207.4147780000003,208.38472440000078,,,,,,,,,,,,,,,,,,293388,001,2024-04-30_18h07.01.763,ArchivoPrueba,2024.1.1,None,2024-04-30 18h07.13.339232 -0500,
None,27,orange,,,,,,,,,,,,,,,,,0,13,13,13,,,,,208.41389470000104,,,,,,,,,,,,,,,208.38499589999992,208.41389470000104,209.3871452000003,,,,,,,,,,,,,,,,,,293388,001,2024-04-30_18h07.01.763,ArchivoPrueba,2024.1.1,None,2024-04-30 18h07.13.339232 -0500,
None,29,brown,,,,,,,,,,,,,,,,,0,14,14,14,,,,,209.4129563000006,,,,,,,,,,,,,,,209.38741240000127,209.4129563000006,210.38760700000057,,,,,,,,,,,,,,,,,,293388,001,2024-04-30_18h07.01.763,ArchivoPrueba,2024.1.1,None,2024-04-30 18h07.13.339232 -0500,
None,31,purple,,,,,,,,,,,,,,,,,0,15,15,15,,,,,210.41226650000135,,,,,,,,,,,,,,,210.38829749999968,210.41226650000135,211.38576439999997,,,,,,,,,,,,,,,,,,293388,001,2024-04-30_18h07.01.763,ArchivoPrueba,2024.1.1,None,2024-04-30 18h07.13.339232 -0500,
None,33,green,,,,,,,,,,,,,,,,,0,16,16,16,,,,,211.41126600000098,,,,,,,,,,,,,,,211.38624979999986,211.41126600000098,212.3814020000009,,,,,,,,,,,,,,,,,,293388,001,2024-04-30_18h07.01.763,ArchivoPrueba,2024.1.1,None,2024-04-30 18h07.13.339232 -0500,
None,35,red,,,,,,,,,,,,,,,,,0,17,17,17,,,,,212.41059570000107,,,,,,,,,,,,,,,212.38175410000076,212.41059570000107,213.38569960000132,,,,,,,,,,,,,,,,,,293388,001,2024-04-30_18h07.01.763,ArchivoPrueba,2024.1.1,None,2024-04-30 18h07.13.339232 -0500,
None,37,white,,,,,,,,,,,,,,,,,0,18,18,18,,,,,213.40979160000097,,,,,,,,,,,,,,,213.38691400000062,213.40979160000097,214.3826855999996,,,,,,,,,,,,,,,,,,293388,001,2024-04-30_18h07.01.763,ArchivoPrueba,2024.1.1,None,2024-04-30 18h07.13.339232 -0500,
None,39,blue,,,,,,,,,,,,,,,,,0,19,19,19,,,,,214.4087271999997,,,,,,,,,,,,,,,214.38294850000057,214.4087271999997,215.39583529999982,,,,,,,,,,,,,,,,,,293388,001,2024-04-30_18h07.01.763,ArchivoPrueba,2024.1.1,None,2024-04-30 18h07.13.339232 -0500,
,,,,,,,,,,,,,,,,,,,,,,,,,,,,,,,,,,,,,,,,,,,,,,,,,,,,,,,,,215.3959321000002,215.41274090000115,235.3772022000012,,,293388,001,2024-04-30_18h07.01.763,ArchivoPrueba,2024.1.1,None,2024-04-30 18h07.13.339232 -0500,
¿Recuerda el recorrido que realiza desde su cama hasta la cocina de su residencia?,1,green,,,,,,,,,,,,,,,,,,,,,0,0,0,0,235.43251670000063,,,,,,,,,,,,,,,235.39949700000034,235.43251670000063,236.37931480000043,,,,,,,,,,,,,,,,,,293388,001,2024-04-30_18h07.01.763,ArchivoPrueba,2024.1.1,None,2024-04-30 18h07.13.339232 -0500,
¿Recuerda el trayecto que hace desde su casa hasta su lugar de trabajo?,3,red,,,,,,,,,,,,,,,,,,,,,0,1,1,1,236.41480349999983,,,,,,,,,,,,,,,236.37976700000036,236.41480349999983,237.37654459999976,,,,,,,,,,,,,,,,,,293388,001,2024-04-30_18h07.01.763,ArchivoPrueba,2024.1.1,None,2024-04-30 18h07.13.339232 -0500,
¿Recuerda  algún inconveniente que ha  experimentado en el camino de su residencia a su lugar de trabajo?,5,white,,,,,,,,,,,,,,,,,,,,,0,2,2,2,237.40274740000132,,,,,,,,,,,,,,,237.37685200000124,237.40274740000132,238.37584080000124,,,,,,,,,,,,,,,,,,293388,001,2024-04-30_18h07.01.763,ArchivoPrueba,2024.1.1,None,2024-04-30 18h07.13.339232 -0500,
¿Recuerda si hay algún lugar u objeto en su camino hacia el trabajo que le llame la atención?,7,blue,,,,,,,,,,,,,,,,,,,,,0,3,3,3,238.40269780000017,,,,,,,,,,,,,,,238.37616610000077,238.40269780000017,239.38928010000018,,,,,,,,,,,,,,,,,,293388,001,2024-04-30_18h07.01.763,ArchivoPrueba,2024.1.1,None,2024-04-30 18h07.13.339232 -0500,
" ¿Recuerda el recorrido desde la entrada de su lugar de trabajo hasta su oficina, donde realiza sus funciones?",9,yellow,,,,,,,,,,,,,,,,,,,,,0,4,4,4,239.41913060000115,,,,,,,,,,,,,,,239.38958920000005,239.41913060000115,240.38945890000105,,,,,,,,,,,,,,,,,,293388,001,2024-04-30_18h07.01.763,ArchivoPrueba,2024.1.1,None,2024-04-30 18h07.13.339232 -0500,
¿Recuerda alguna actividad que realice durante los viajes de regreso a casa desde el trabajo para relajarse?,11,orange,,,,,,,,,,,,,,,,,,,,,0,5,5,5,240.41943320000064,,,,,,,,,,,,,,,240.38975580000078,240.41943320000064,241.37267950000023,,,,,,,,,,,,,,,,,,293388,001,2024-04-30_18h07.01.763,ArchivoPrueba,2024.1.1,None,2024-04-30 18h07.13.339232 -0500,
¿Recuerda el trayecto que realiza desde su casa hasta el lugar donde realiza sus compras?,13,brown,,,,,,,,,,,,,,,,,,,,,0,6,6,6,241.40341369999987,,,,,,,,,,,,,,,241.37299630000052,241.40341369999987,242.37459070000114,,,,,,,,,,,,,,,,,,293388,001,2024-04-30_18h07.01.763,ArchivoPrueba,2024.1.1,None,2024-04-30 18h07.13.339232 -0500,
¿Recuerda alguna situación divertida o interesante que haya experimentado durante el recorrido hacia el lugar de compras?,15,purple,,,,,,,,,,,,,,,,,,,,,0,7,7,7,242.424971800001,,,,,,,,,,,,,,,242.3750868999996,242.424971800001,243.37410629999977,,,,,,,,,,,,,,,,,,293388,001,2024-04-30_18h07.01.763,ArchivoPrueba,2024.1.1,None,2024-04-30 18h07.13.339232 -0500,
 ¿Recuerda qué es lo primero que ve al llegar al lugar donde realiza sus compras?,17,green,,,,,,,,,,,,,,,,,,,,,0,8,8,8,243.39868360000037,,,,,,,,,,,,,,,243.3744815000009,243.39868360000037,244.37783520000085,,,,,,,,,,,,,,,,,,293388,001,2024-04-30_18h07.01.763,ArchivoPrueba,2024.1.1,None,2024-04-30 18h07.13.339232 -0500,
¿Recuerda el recorrido desde su residencia hasta el centro de resonancia magnética?,19,red,,,,,,,,,,,,,,,,,,,,,0,9,9,9,244.43492460000016,,,,,,,,,,,,,,,244.37855200000013,244.43492460000016,245.38621440000134,,,,,,,,,,,,,,,,,,293388,001,2024-04-30_18h07.01.763,ArchivoPrueba,2024.1.1,None,2024-04-30 18h07.13.339232 -0500,
None,21,white,,,,,,,,,,,,,,,,,,,,,0,10,10,10,245.4146450999997,,,,,,,,,,,,,,,245.38651110000137,245.4146450999997,246.4009395000012,,,,,,,,,,,,,,,,,,293388,001,2024-04-30_18h07.01.763,ArchivoPrueba,2024.1.1,None,2024-04-30 18h07.13.339232 -0500,
None,23,blue,,,,,,,,,,,,,,,,,,,,,0,11,11,11,246.43079829999988,,,,,,,,,,,,,,,246.40125070000067,246.43079829999988,247.383333400001,,,,,,,,,,,,,,,,,,293388,001,2024-04-30_18h07.01.763,ArchivoPrueba,2024.1.1,None,2024-04-30 18h07.13.339232 -0500,
None,25,yellow,,,,,,,,,,,,,,,,,,,,,0,12,12,12,247.41337879999992,,,,,,,,,,,,,,,247.38363130000107,247.41337879999992,248.39900620000117,,,,,,,,,,,,,,,,,,293388,001,2024-04-30_18h07.01.763,ArchivoPrueba,2024.1.1,None,2024-04-30 18h07.13.339232 -0500,
None,27,orange,,,,,,,,,,,,,,,,,,,,,0,13,13,13,248.42851990000054,,,,,,,,,,,,,,,248.39929810000103,248.42851990000054,249.38753309999993,,,,,,,,,,,,,,,,,,293388,001,2024-04-30_18h07.01.763,ArchivoPrueba,2024.1.1,None,2024-04-30 18h07.13.339232 -0500,
None,29,brown,,,,,,,,,,,,,,,,,,,,,0,14,14,14,249.45487219999995,,,,,,,,,,,,,,,249.38851129999966,249.45487219999995,250.38034420000076,,,,,,,,,,,,,,,,,,293388,001,2024-04-30_18h07.01.763,ArchivoPrueba,2024.1.1,None,2024-04-30 18h07.13.339232 -0500,
None,31,purple,,,,,,,,,,,,,,,,,,,,,0,15,15,15,250.41638039999998,,,,,,,,,,,,,,,250.3806629999999,250.41638039999998,251.3791082000007,,,,,,,,,,,,,,,,,,293388,001,2024-04-30_18h07.01.763,ArchivoPrueba,2024.1.1,None,2024-04-30 18h07.13.339232 -0500,
None,33,green,,,,,,,,,,,,,,,,,,,,,0,16,16,16,251.40768610000123,,,,,,,,,,,,,,,251.37940610000078,251.40768610000123,252.38087079999968,,,,,,,,,,,,,,,,,,293388,001,2024-04-30_18h07.01.763,ArchivoPrueba,2024.1.1,None,2024-04-30 18h07.13.339232 -0500,
None,35,red,,,,,,,,,,,,,,,,,,,,,0,17,17,17,252.40711720000036,,,,,,,,,,,,,,,252.38119370000095,252.40711720000036,253.37978140000087,,,,,,,,,,,,,,,,,,293388,001,2024-04-30_18h07.01.763,ArchivoPrueba,2024.1.1,None,2024-04-30 18h07.13.339232 -0500,
None,37,white,,,,,,,,,,,,,,,,,,,,,0,18,18,18,253.40638790000048,,,,,,,,,,,,,,,253.3800865000012,253.40638790000048,254.37747310000123,,,,,,,,,,,,,,,,,,293388,001,2024-04-30_18h07.01.763,ArchivoPrueba,2024.1.1,None,2024-04-30 18h07.13.339232 -0500,
None,39,blue,,,,,,,,,,,,,,,,,,,,,0,19,19,19,254.40604630000053,,,,,,,,,,,,,,,254.37784199999987,254.40604630000053,255.38036610000017,,,,,,,,,,,,,,,,,,293388,001,2024-04-30_18h07.01.763,ArchivoPrueba,2024.1.1,None,2024-04-30 18h07.13.339232 -0500,
,,,,,,,,,,,,,,,,,,,,,,,,,,,,,,,,,,,,,,,,,,,,,,,,,,,,,,,,,,,,255.3804309999996,255.40594299999975,,,,,,,,
