PreguntaOff,PreguntaOn,Colors,Prueba.thisRepN,Prueba.thisTrialN,Prueba.thisN,Prueba.thisIndex,RepeticionOn.thisRepN,RepeticionOn.thisTrialN,RepeticionOn.thisN,RepeticionOn.thisIndex,thisRow.t,notes,introducción_3.started,introducción.started,mouse.started,introducción_3.stopped,mouse.x,mouse.y,mouse.leftButton,mouse.midButton,mouse.rightButton,mouse.time,Off.started,CondicionOff.started,Off.stopped,On.started,On.stopped,CondicionOn.started,participant,session,date,expName,psychopyVersion,frameRate,expStart,
,,,,,,,,,,,,,0.09607770000002347,0.11704550000104064,0.09529750000001513,7.9043842000010045,[-0.15234375],[0.17708333333333334],[1],[0],[0],[7.804260400000203],,,,,,,378311,001,2024-04-28_12h57.39.364,ArchivoPrueba,2024.1.1,None,2024-04-28 12h57.58.255563 -0500,
¿Recuerda el recorrido que realiza desde su cama hasta la cocina de su residencia?,1,green,0,0,0,0,0,0,0,0,9.0924286999998,,,,,,,,,,,,8.129220200000418,8.193395399999645,8.935354999999618,8.982465600000069,9.05005170000004,,378311,001,2024-04-28_12h57.39.364,ArchivoPrueba,2024.1.1,None,2024-04-28 12h57.58.255563 -0500,
¿Recuerda el trayecto que hace desde su casa hasta su lugar de trabajo?,3,red,0,0,0,0,0,1,1,1,9.0924286999998,,,,,,,,,,,,,,,9.051950500001112,9.11371379999946,9.0924286999998,378311,001,2024-04-28_12h57.39.364,ArchivoPrueba,2024.1.1,None,2024-04-28 12h57.58.255563 -0500,
¿Recuerda  algún inconveniente que ha  experimentado en el camino de su residencia a su lugar de trabajo?,5,white,0,0,0,0,0,2,2,2,9.15996129999985,,,,,,,,,,,,,,,9.11533640000016,9.21514500000012,9.15996129999985,378311,001,2024-04-28_12h57.39.364,ArchivoPrueba,2024.1.1,None,2024-04-28 12h57.58.255563 -0500,
¿Recuerda si hay algún lugar u objeto en su camino hacia el trabajo que le llame la atención?,7,blue,0,0,0,0,0,3,3,3,9.260127100000318,,,,,,,,,,,,,,,9.216494700000112,9.333732900000541,9.260127100000318,378311,001,2024-04-28_12h57.39.364,ArchivoPrueba,2024.1.1,None,2024-04-28 12h57.58.255563 -0500,
" ¿Recuerda el recorrido desde la entrada de su lugar de trabajo hasta su oficina, donde realiza sus funciones?",9,yellow,0,0,0,0,0,4,4,4,9.376437500000975,,,,,,,,,,,,,,,9.334959300000264,9.465172600001097,9.376437500000975,378311,001,2024-04-28_12h57.39.364,ArchivoPrueba,2024.1.1,None,2024-04-28 12h57.58.255563 -0500,
¿Recuerda alguna actividad que realice durante los viajes de regreso a casa desde el trabajo para relajarse?,11,orange,0,0,0,0,0,5,5,5,9.529200799999671,,,,,,,,,,,,,,,9.467743200000768,9.562753600001088,9.529200799999671,378311,001,2024-04-28_12h57.39.364,ArchivoPrueba,2024.1.1,None,2024-04-28 12h57.58.255563 -0500,
¿Recuerda el trayecto que realiza desde su casa hasta el lugar donde realiza sus compras?,13,brown,0,0,0,0,0,6,6,6,9.612718300000779,,,,,,,,,,,,,,,9.565068800000518,9.648895500000435,9.612718300000779,378311,001,2024-04-28_12h57.39.364,ArchivoPrueba,2024.1.1,None,2024-04-28 12h57.58.255563 -0500,
¿Recuerda alguna situación divertida o interesante que haya experimentado durante el recorrido hacia el lugar de compras?,15,purple,0,0,0,0,0,7,7,7,9.693079300001045,,,,,,,,,,,,,,,9.651095900000655,9.739340800000718,9.693079300001045,378311,001,2024-04-28_12h57.39.364,ArchivoPrueba,2024.1.1,None,2024-04-28 12h57.58.255563 -0500,
 ¿Recuerda qué es lo primero que ve al llegar al lugar donde realiza sus compras?,17,green,0,0,0,0,0,8,8,8,9.777601800000411,,,,,,,,,,,,,,,9.740654799999902,9.846824300000662,9.777601800000411,378311,001,2024-04-28_12h57.39.364,ArchivoPrueba,2024.1.1,None,2024-04-28 12h57.58.255563 -0500,
¿Recuerda el recorrido desde su residencia hasta el centro de resonancia magnética?,19,red,0,0,0,0,0,9,9,9,9.877378000001045,,,,,,,,,,,,,,,9.848319300001094,9.949034299999767,9.877378000001045,378311,001,2024-04-28_12h57.39.364,ArchivoPrueba,2024.1.1,None,2024-04-28 12h57.58.255563 -0500,
None,21,white,0,0,0,0,0,10,10,10,10.043509999999515,,,,,,,,,,,,,,,9.950282699999661,10.007688300000154,,378311,001,2024-04-28_12h57.39.364,ArchivoPrueba,2024.1.1,None,2024-04-28 12h57.58.255563 -0500,
None,23,blue,0,0,0,0,0,11,11,11,10.043509999999515,,,,,,,,,,,,,,,10.009218900000633,10.121777199999997,10.043509999999515,378311,001,2024-04-28_12h57.39.364,ArchivoPrueba,2024.1.1,None,2024-04-28 12h57.58.255563 -0500,
None,25,yellow,0,0,0,0,0,12,12,12,10.160621299999548,,,,,,,,,,,,,,,10.12385660000109,10.234036800000467,10.160621299999548,378311,001,2024-04-28_12h57.39.364,ArchivoPrueba,2024.1.1,None,2024-04-28 12h57.58.255563 -0500,
None,27,orange,0,0,0,0,0,13,13,13,10.276938599999994,,,,,,,,,,,,,,,10.235818900000595,10.350826199999574,10.276938599999994,378311,001,2024-04-28_12h57.39.364,ArchivoPrueba,2024.1.1,None,2024-04-28 12h57.58.255563 -0500,
None,29,brown,0,0,0,0,0,14,14,14,10.394079300000158,,,,,,,,,,,,,,,10.352364000000307,10.415733499999988,10.394079300000158,378311,001,2024-04-28_12h57.39.364,ArchivoPrueba,2024.1.1,None,2024-04-28 12h57.58.255563 -0500,
None,31,purple,0,0,0,0,0,15,15,15,10.460806900000534,,,,,,,,,,,,,,,10.417416899999807,10.54093869999997,10.460806900000534,378311,001,2024-04-28_12h57.39.364,ArchivoPrueba,2024.1.1,None,2024-04-28 12h57.58.255563 -0500,
None,33,green,0,0,0,0,0,16,16,16,10.5944614,,,,,,,,,,,,,,,10.542304500000682,10.624082100001033,10.5944614,378311,001,2024-04-28_12h57.39.364,ArchivoPrueba,2024.1.1,None,2024-04-28 12h57.58.255563 -0500,
None,35,red,0,0,0,0,0,17,17,17,10.678019299999505,,,,,,,,,,,,,,,10.626087300001018,10.725722600000154,10.678019299999505,378311,001,2024-04-28_12h57.39.364,ArchivoPrueba,2024.1.1,None,2024-04-28 12h57.58.255563 -0500,
None,37,white,0,0,0,0,0,18,18,18,10.760648299999957,,,,,,,,,,,,,,,10.726516500000798,10.835604300000341,10.760648299999957,378311,001,2024-04-28_12h57.39.364,ArchivoPrueba,2024.1.1,None,2024-04-28 12h57.58.255563 -0500,
None,39,blue,0,0,0,0,0,19,19,19,10.876571400000103,,,,,,,,,,,,,,,10.837975800001004,10.947850700000345,10.876571400000103,378311,001,2024-04-28_12h57.39.364,ArchivoPrueba,2024.1.1,None,2024-04-28 12h57.58.255563 -0500,
¿Recuerda el recorrido que realiza desde su cama hasta la cocina de su residencia?,1,green,0,0,0,0,,,,,,,,,,,,,,,,,,,,,,,378311,001,2024-04-28_12h57.39.364,ArchivoPrueba,2024.1.1,None,2024-04-28 12h57.58.255563 -0500,
¿Recuerda el recorrido que realiza desde su cama hasta la cocina de su residencia?,1,green,0,1,1,1,0,0,0,0,12.045117600000594,,,,,,,,,,,,10.949470400000791,11.02552950000063,11.932913000000553,11.983504800000446,12.051028699999733,12.045117600000594,378311,001,2024-04-28_12h57.39.364,ArchivoPrueba,2024.1.1,None,2024-04-28 12h57.58.255563 -0500,
¿Recuerda el trayecto que hace desde su casa hasta su lugar de trabajo?,3,red,0,1,1,1,0,1,1,1,12.090476000001217,,,,,,,,,,,,,,,12.051742999999988,12.122976000000563,12.090476000001217,378311,001,2024-04-28_12h57.39.364,ArchivoPrueba,2024.1.1,None,2024-04-28 12h57.58.255563 -0500,
¿Recuerda  algún inconveniente que ha  experimentado en el camino de su residencia a su lugar de trabajo?,5,white,0,1,1,1,0,2,2,2,12.19313880000118,,,,,,,,,,,,,,,12.127592000000732,12.225181499999962,12.19313880000118,378311,001,2024-04-28_12h57.39.364,ArchivoPrueba,2024.1.1,None,2024-04-28 12h57.58.255563 -0500,
¿Recuerda si hay algún lugar u objeto en su camino hacia el trabajo que le llame la atención?,7,blue,0,1,1,1,0,3,3,3,12.275936600000932,,,,,,,,,,,,,,,12.226957299999412,12.30901780000022,12.275936600000932,378311,001,2024-04-28_12h57.39.364,ArchivoPrueba,2024.1.1,None,2024-04-28 12h57.58.255563 -0500,
" ¿Recuerda el recorrido desde la entrada de su lugar de trabajo hasta su oficina, donde realiza sus funciones?",9,yellow,0,1,1,1,0,4,4,4,12.381148800001029,,,,,,,,,,,,,,,12.31228370000099,12.413912699999855,12.381148800001029,378311,001,2024-04-28_12h57.39.364,ArchivoPrueba,2024.1.1,None,2024-04-28 12h57.58.255563 -0500,
¿Recuerda alguna actividad que realice durante los viajes de regreso a casa desde el trabajo para relajarse?,11,orange,0,1,1,1,0,5,5,5,12.447634600001038,,,,,,,,,,,,,,,12.415427899999486,12.527235699999437,12.447634600001038,378311,001,2024-04-28_12h57.39.364,ArchivoPrueba,2024.1.1,None,2024-04-28 12h57.58.255563 -0500,
¿Recuerda el trayecto que realiza desde su casa hasta el lugar donde realiza sus compras?,13,brown,0,1,1,1,0,6,6,6,12.59472790000109,,,,,,,,,,,,,,,12.529802999999447,12.629206699999486,12.59472790000109,378311,001,2024-04-28_12h57.39.364,ArchivoPrueba,2024.1.1,None,2024-04-28 12h57.58.255563 -0500,
¿Recuerda alguna situación divertida o interesante que haya experimentado durante el recorrido hacia el lugar de compras?,15,purple,0,1,1,1,0,7,7,7,12.692873699999836,,,,,,,,,,,,,,,12.631692599999951,12.72556319999967,12.692873699999836,378311,001,2024-04-28_12h57.39.364,ArchivoPrueba,2024.1.1,None,2024-04-28 12h57.58.255563 -0500,
 ¿Recuerda qué es lo primero que ve al llegar al lugar donde realiza sus compras?,17,green,0,1,1,1,0,8,8,8,12.762028500001179,,,,,,,,,,,,,,,12.728118700000778,12.841162300001088,12.762028500001179,378311,001,2024-04-28_12h57.39.364,ArchivoPrueba,2024.1.1,None,2024-04-28 12h57.58.255563 -0500,
¿Recuerda el recorrido desde su residencia hasta el centro de resonancia magnética?,19,red,0,1,1,1,0,9,9,9,12.89236830000118,,,,,,,,,,,,,,,12.842992600000798,12.926154200000383,12.89236830000118,378311,001,2024-04-28_12h57.39.364,ArchivoPrueba,2024.1.1,None,2024-04-28 12h57.58.255563 -0500,
None,21,white,0,1,1,1,0,10,10,10,12.988350800000262,,,,,,,,,,,,,,,12.92905140000039,13.035787099999652,12.988350800000262,378311,001,2024-04-28_12h57.39.364,ArchivoPrueba,2024.1.1,None,2024-04-28 12h57.58.255563 -0500,
None,23,blue,0,1,1,1,0,11,11,11,13.170267299999978,,,,,,,,,,,,,,,13.038635299999441,13.195271500000672,13.170267299999978,378311,001,2024-04-28_12h57.39.364,ArchivoPrueba,2024.1.1,None,2024-04-28 12h57.58.255563 -0500,
None,25,yellow,0,1,1,1,0,12,12,12,13.258093100001133,,,,,,,,,,,,,,,13.19701680000071,13.212468100000478,,378311,001,2024-04-28_12h57.39.364,ArchivoPrueba,2024.1.1,None,2024-04-28 12h57.58.255563 -0500,
None,27,orange,0,1,1,1,0,13,13,13,13.258093100001133,,,,,,,,,,,,,,,13.214098800001011,13.336395300000731,13.258093100001133,378311,001,2024-04-28_12h57.39.364,ArchivoPrueba,2024.1.1,None,2024-04-28 12h57.58.255563 -0500,
None,29,brown,0,1,1,1,0,14,14,14,13.374080800000229,,,,,,,,,,,,,,,13.338479500000176,13.470272200000181,13.374080800000229,378311,001,2024-04-28_12h57.39.364,ArchivoPrueba,2024.1.1,None,2024-04-28 12h57.58.255563 -0500,
None,31,purple,0,1,1,1,0,15,15,15,13.530018800000107,,,,,,,,,,,,,,,13.473504200001116,13.560823100000562,13.530018800000107,378311,001,2024-04-28_12h57.39.364,ArchivoPrueba,2024.1.1,None,2024-04-28 12h57.58.255563 -0500,
None,33,green,0,1,1,1,0,16,16,16,13.613317100000131,,,,,,,,,,,,,,,13.562615099999675,13.655580399999963,13.613317100000131,378311,001,2024-04-28_12h57.39.364,ArchivoPrueba,2024.1.1,None,2024-04-28 12h57.58.255563 -0500,
None,35,red,0,1,1,1,0,17,17,17,13.71302250000008,,,,,,,,,,,,,,,13.65770970000085,13.760985299999447,13.71302250000008,378311,001,2024-04-28_12h57.39.364,ArchivoPrueba,2024.1.1,None,2024-04-28 12h57.58.255563 -0500,
None,37,white,0,1,1,1,0,18,18,18,13.827351300000373,,,,,,,,,,,,,,,13.764540199999828,13.843221600000106,13.827351300000373,378311,001,2024-04-28_12h57.39.364,ArchivoPrueba,2024.1.1,None,2024-04-28 12h57.58.255563 -0500,
None,39,blue,0,1,1,1,0,19,19,19,13.926387700001214,,,,,,,,,,,,,,,13.844145799999751,13.963708200000838,13.926387700001214,378311,001,2024-04-28_12h57.39.364,ArchivoPrueba,2024.1.1,None,2024-04-28 12h57.58.255563 -0500,
¿Recuerda el trayecto que hace desde su casa hasta su lugar de trabajo?,3,red,0,1,1,1,,,,,,,,,,,,,,,,,,,,,,,378311,001,2024-04-28_12h57.39.364,ArchivoPrueba,2024.1.1,None,2024-04-28 12h57.58.255563 -0500,
¿Recuerda el recorrido que realiza desde su cama hasta la cocina de su residencia?,1,green,0,2,2,2,0,0,0,0,15.022358300000633,,,,,,,,,,,,13.967449300000226,14.053873200000453,14.94309229999999,14.990713799999867,15.046435100000963,15.022358300000633,378311,001,2024-04-28_12h57.39.364,ArchivoPrueba,2024.1.1,None,2024-04-28 12h57.58.255563 -0500,
¿Recuerda el trayecto que hace desde su casa hasta su lugar de trabajo?,3,red,0,2,2,2,0,1,1,1,15.087995199999568,,,,,,,,,,,,,,,15.047991100000218,15.138474700001098,15.087995199999568,378311,001,2024-04-28_12h57.39.364,ArchivoPrueba,2024.1.1,None,2024-04-28 12h57.58.255563 -0500,
¿Recuerda  algún inconveniente que ha  experimentado en el camino de su residencia a su lugar de trabajo?,5,white,0,2,2,2,0,2,2,2,15.171953200000644,,,,,,,,,,,,,,,15.139611200000218,15.241552100000263,15.171953200000644,378311,001,2024-04-28_12h57.39.364,ArchivoPrueba,2024.1.1,None,2024-04-28 12h57.58.255563 -0500,
¿Recuerda si hay algún lugar u objeto en su camino hacia el trabajo que le llame la atención?,7,blue,0,2,2,2,0,3,3,3,15.271787300000142,,,,,,,,,,,,,,,15.242822800000795,15.338216300000568,15.271787300000142,378311,001,2024-04-28_12h57.39.364,ArchivoPrueba,2024.1.1,None,2024-04-28 12h57.58.255563 -0500,
" ¿Recuerda el recorrido desde la entrada de su lugar de trabajo hasta su oficina, donde realiza sus funciones?",9,yellow,0,2,2,2,0,4,4,4,15.371845400000893,,,,,,,,,,,,,,,15.33934820000104,15.421451399999569,15.371845400000893,378311,001,2024-04-28_12h57.39.364,ArchivoPrueba,2024.1.1,None,2024-04-28 12h57.58.255563 -0500,
¿Recuerda alguna actividad que realice durante los viajes de regreso a casa desde el trabajo para relajarse?,11,orange,0,2,2,2,0,5,5,5,15.455180500001006,,,,,,,,,,,,,,,15.422685499999716,15.505794900000183,15.455180500001006,378311,001,2024-04-28_12h57.39.364,ArchivoPrueba,2024.1.1,None,2024-04-28 12h57.58.255563 -0500,
¿Recuerda el trayecto que realiza desde su casa hasta el lugar donde realiza sus compras?,13,brown,0,2,2,2,0,6,6,6,15.538408700000218,,,,,,,,,,,,,,,15.506950299999517,15.61903379999967,15.538408700000218,378311,001,2024-04-28_12h57.39.364,ArchivoPrueba,2024.1.1,None,2024-04-28 12h57.58.255563 -0500,
¿Recuerda alguna situación divertida o interesante que haya experimentado durante el recorrido hacia el lugar de compras?,15,purple,0,2,2,2,0,7,7,7,15.654934800000774,,,,,,,,,,,,,,,15.620969699999478,15.738839600000574,15.654934800000774,378311,001,2024-04-28_12h57.39.364,ArchivoPrueba,2024.1.1,None,2024-04-28 12h57.58.255563 -0500,
 ¿Recuerda qué es lo primero que ve al llegar al lugar donde realiza sus compras?,17,green,0,2,2,2,0,8,8,8,15.771456000000398,,,,,,,,,,,,,,,15.740091699999539,15.82179990000077,15.771456000000398,378311,001,2024-04-28_12h57.39.364,ArchivoPrueba,2024.1.1,None,2024-04-28 12h57.58.255563 -0500,
¿Recuerda el recorrido desde su residencia hasta el centro de resonancia magnética?,19,red,0,2,2,2,0,9,9,9,15.854892900000777,,,,,,,,,,,,,,,15.822804600000381,15.938543899999786,15.854892900000777,378311,001,2024-04-28_12h57.39.364,ArchivoPrueba,2024.1.1,None,2024-04-28 12h57.58.255563 -0500,
None,21,white,0,2,2,2,0,10,10,10,15.971540599999571,,,,,,,,,,,,,,,15.939669800000047,16.027343100000508,15.971540599999571,378311,001,2024-04-28_12h57.39.364,ArchivoPrueba,2024.1.1,None,2024-04-28 12h57.58.255563 -0500,
None,23,blue,0,2,2,2,0,11,11,11,16.07107879999967,,,,,,,,,,,,,,,16.02871100000084,16.123714299999847,16.07107879999967,378311,001,2024-04-28_12h57.39.364,ArchivoPrueba,2024.1.1,None,2024-04-28 12h57.58.255563 -0500,
None,25,yellow,0,2,2,2,0,12,12,12,16.154701499999646,,,,,,,,,,,,,,,16.124905800001216,16.23605189999944,16.154701499999646,378311,001,2024-04-28_12h57.39.364,ArchivoPrueba,2024.1.1,None,2024-04-28 12h57.58.255563 -0500,
None,27,orange,0,2,2,2,0,13,13,13,16.271311500000593,,,,,,,,,,,,,,,16.237705900000947,16.322818800001187,16.271311500000593,378311,001,2024-04-28_12h57.39.364,ArchivoPrueba,2024.1.1,None,2024-04-28 12h57.58.255563 -0500,
None,29,brown,0,2,2,2,0,14,14,14,16.354736200000843,,,,,,,,,,,,,,,16.323963200000435,16.43657660000099,16.354736200000843,378311,001,2024-04-28_12h57.39.364,ArchivoPrueba,2024.1.1,None,2024-04-28 12h57.58.255563 -0500,
None,31,purple,0,2,2,2,0,15,15,15,16.472035799999503,,,,,,,,,,,,,,,16.43811360000109,16.523194600000352,16.472035799999503,378311,001,2024-04-28_12h57.39.364,ArchivoPrueba,2024.1.1,None,2024-04-28 12h57.58.255563 -0500,
None,33,green,0,2,2,2,0,16,16,16,16.55461970000033,,,,,,,,,,,,,,,16.524230900000475,16.607874700001048,16.55461970000033,378311,001,2024-04-28_12h57.39.364,ArchivoPrueba,2024.1.1,None,2024-04-28 12h57.58.255563 -0500,
None,35,red,0,2,2,2,0,17,17,17,16.638074100001177,,,,,,,,,,,,,,,16.608902699999817,16.72178420000091,16.638074100001177,378311,001,2024-04-28_12h57.39.364,ArchivoPrueba,2024.1.1,None,2024-04-28 12h57.58.255563 -0500,
None,37,white,0,2,2,2,0,18,18,18,16.754532900000413,,,,,,,,,,,,,,,16.722847900000488,16.83853420000014,16.754532900000413,378311,001,2024-04-28_12h57.39.364,ArchivoPrueba,2024.1.1,None,2024-04-28 12h57.58.255563 -0500,
None,39,blue,0,2,2,2,0,19,19,19,16.87122620000082,,,,,,,,,,,,,,,16.839556299999458,16.93821829999979,16.87122620000082,378311,001,2024-04-28_12h57.39.364,ArchivoPrueba,2024.1.1,None,2024-04-28 12h57.58.255563 -0500,
¿Recuerda  algún inconveniente que ha  experimentado en el camino de su residencia a su lugar de trabajo?,5,white,0,2,2,2,,,,,,,,,,,,,,,,,,,,,,,378311,001,2024-04-28_12h57.39.364,ArchivoPrueba,2024.1.1,None,2024-04-28 12h57.58.255563 -0500,
¿Recuerda el recorrido que realiza desde su cama hasta la cocina de su residencia?,1,green,0,3,3,3,0,0,0,0,18.02036340000086,,,,,,,,,,,,16.939625500001057,17.002679700000954,17.934438899999805,17.98802319999959,18.04353220000121,18.02036340000086,378311,001,2024-04-28_12h57.39.364,ArchivoPrueba,2024.1.1,None,2024-04-28 12h57.58.255563 -0500,
¿Recuerda el trayecto que hace desde su casa hasta su lugar de trabajo?,3,red,0,3,3,3,0,1,1,1,18.085982200000217,,,,,,,,,,,,,,,18.04491109999981,18.15565129999959,18.085982200000217,378311,001,2024-04-28_12h57.39.364,ArchivoPrueba,2024.1.1,None,2024-04-28 12h57.58.255563 -0500,
¿Recuerda  algún inconveniente que ha  experimentado en el camino de su residencia a su lugar de trabajo?,5,white,0,3,3,3,0,2,2,2,18.20331350000015,,,,,,,,,,,,,,,18.15718510000079,18.223956400001043,18.20331350000015,378311,001,2024-04-28_12h57.39.364,ArchivoPrueba,2024.1.1,None,2024-04-28 12h57.58.255563 -0500,
¿Recuerda si hay algún lugar u objeto en su camino hacia el trabajo que le llame la atención?,7,blue,0,3,3,3,0,3,3,3,18.270144699999946,,,,,,,,,,,,,,,18.225867999999537,18.339761799999906,18.270144699999946,378311,001,2024-04-28_12h57.39.364,ArchivoPrueba,2024.1.1,None,2024-04-28 12h57.58.255563 -0500,
" ¿Recuerda el recorrido desde la entrada de su lugar de trabajo hasta su oficina, donde realiza sus funciones?",9,yellow,0,3,3,3,0,4,4,4,18.3701400000009,,,,,,,,,,,,,,,18.34104169999955,18.441732799999954,18.3701400000009,378311,001,2024-04-28_12h57.39.364,ArchivoPrueba,2024.1.1,None,2024-04-28 12h57.58.255563 -0500,
¿Recuerda alguna actividad que realice durante los viajes de regreso a casa desde el trabajo para relajarse?,11,orange,0,3,3,3,0,5,5,5,18.48673559999952,,,,,,,,,,,,,,,18.443110700000034,18.511181600000782,18.48673559999952,378311,001,2024-04-28_12h57.39.364,ArchivoPrueba,2024.1.1,None,2024-04-28 12h57.58.255563 -0500,
¿Recuerda el trayecto que realiza desde su casa hasta el lugar donde realiza sus compras?,13,brown,0,3,3,3,0,6,6,6,18.553521699999692,,,,,,,,,,,,,,,18.513215500001024,18.625029500000892,18.553521699999692,378311,001,2024-04-28_12h57.39.364,ArchivoPrueba,2024.1.1,None,2024-04-28 12h57.58.255563 -0500,
¿Recuerda alguna situación divertida o interesante que haya experimentado durante el recorrido hacia el lugar de compras?,15,purple,0,3,3,3,0,7,7,7,18.66978089999975,,,,,,,,,,,,,,,18.626240800000232,18.739772200000516,18.66978089999975,378311,001,2024-04-28_12h57.39.364,ArchivoPrueba,2024.1.1,None,2024-04-28 12h57.58.255563 -0500,
 ¿Recuerda qué es lo primero que ve al llegar al lugar donde realiza sus compras?,17,green,0,3,3,3,0,8,8,8,18.78589749999992,,,,,,,,,,,,,,,18.741113300000507,18.836541200000283,18.78589749999992,378311,001,2024-04-28_12h57.39.364,ArchivoPrueba,2024.1.1,None,2024-04-28 12h57.58.255563 -0500,
¿Recuerda el recorrido desde su residencia hasta el centro de resonancia magnética?,19,red,0,3,3,3,0,9,9,9,18.86904030000005,,,,,,,,,,,,,,,18.83774000000085,18.916732699999557,18.86904030000005,378311,001,2024-04-28_12h57.39.364,ArchivoPrueba,2024.1.1,None,2024-04-28 12h57.58.255563 -0500,
None,21,white,0,3,3,3,0,10,10,10,18.952483700000812,,,,,,,,,,,,,,,18.9185209999996,19.0576388999998,18.952483700000812,378311,001,2024-04-28_12h57.39.364,ArchivoPrueba,2024.1.1,None,2024-04-28 12h57.58.255563 -0500,
None,23,blue,0,3,3,3,0,11,11,11,19.085446799999772,,,,,,,,,,,,,,,19.059049100000266,19.135380699999587,19.085446799999772,378311,001,2024-04-28_12h57.39.364,ArchivoPrueba,2024.1.1,None,2024-04-28 12h57.58.255563 -0500,
None,25,yellow,0,3,3,3,0,12,12,12,19.169561599999724,,,,,,,,,,,,,,,19.136529999999766,19.21793500000058,19.169561599999724,378311,001,2024-04-28_12h57.39.364,ArchivoPrueba,2024.1.1,None,2024-04-28 12h57.58.255563 -0500,
None,27,orange,0,3,3,3,0,13,13,13,19.252037700000074,,,,,,,,,,,,,,,19.219376700000794,19.336398700001155,19.252037700000074,378311,001,2024-04-28_12h57.39.364,ArchivoPrueba,2024.1.1,None,2024-04-28 12h57.58.255563 -0500,
None,29,brown,0,3,3,3,0,14,14,14,19.369012600000133,,,,,,,,,,,,,,,19.337578399999984,19.419285400001172,19.369012600000133,378311,001,2024-04-28_12h57.39.364,ArchivoPrueba,2024.1.1,None,2024-04-28 12h57.58.255563 -0500,
None,31,purple,0,3,3,3,0,15,15,15,19.452066600000762,,,,,,,,,,,,,,,19.420400700000755,19.533910500000275,19.452066600000762,378311,001,2024-04-28_12h57.39.364,ArchivoPrueba,2024.1.1,None,2024-04-28 12h57.58.255563 -0500,
None,33,green,0,3,3,3,0,16,16,16,19.56875140000011,,,,,,,,,,,,,,,19.53566580000006,19.61834799999997,19.56875140000011,378311,001,2024-04-28_12h57.39.364,ArchivoPrueba,2024.1.1,None,2024-04-28 12h57.58.255563 -0500,
None,35,red,0,3,3,3,0,17,17,17,19.652476999999635,,,,,,,,,,,,,,,19.619602300001134,19.723319500000798,19.652476999999635,378311,001,2024-04-28_12h57.39.364,ArchivoPrueba,2024.1.1,None,2024-04-28 12h57.58.255563 -0500,
None,37,white,0,3,3,3,0,18,18,18,19.769931000000724,,,,,,,,,,,,,,,19.725695500001166,19.84443520000059,19.769931000000724,378311,001,2024-04-28_12h57.39.364,ArchivoPrueba,2024.1.1,None,2024-04-28 12h57.58.255563 -0500,
None,39,blue,0,3,3,3,0,19,19,19,19.886915200000658,,,,,,,,,,,,,,,19.848205700000108,19.909953100001076,19.886915200000658,378311,001,2024-04-28_12h57.39.364,ArchivoPrueba,2024.1.1,None,2024-04-28 12h57.58.255563 -0500,
¿Recuerda si hay algún lugar u objeto en su camino hacia el trabajo que le llame la atención?,7,blue,0,3,3,3,,,,,,,,,,,,,,,,,,,,,,,378311,001,2024-04-28_12h57.39.364,ArchivoPrueba,2024.1.1,None,2024-04-28 12h57.58.255563 -0500,
¿Recuerda el recorrido que realiza desde su cama hasta la cocina de su residencia?,1,green,0,4,4,4,0,0,0,0,21.017891499999678,,,,,,,,,,,,19.913584100000662,20.018093399999998,20.9244877000001,20.972730600000432,21.041418000000704,21.017891499999678,378311,001,2024-04-28_12h57.39.364,ArchivoPrueba,2024.1.1,None,2024-04-28 12h57.58.255563 -0500,
¿Recuerda el trayecto que hace desde su casa hasta su lugar de trabajo?,3,red,0,4,4,4,0,1,1,1,21.083760299999994,,,,,,,,,,,,,,,21.042980300000636,21.155854399999953,21.083760299999994,378311,001,2024-04-28_12h57.39.364,ArchivoPrueba,2024.1.1,None,2024-04-28 12h57.58.255563 -0500,
¿Recuerda  algún inconveniente que ha  experimentado en el camino de su residencia a su lugar de trabajo?,5,white,0,4,4,4,0,2,2,2,21.20085409999956,,,,,,,,,,,,,,,21.15711949999968,21.22532610000053,21.20085409999956,378311,001,2024-04-28_12h57.39.364,ArchivoPrueba,2024.1.1,None,2024-04-28 12h57.58.255563 -0500,
¿Recuerda si hay algún lugar u objeto en su camino hacia el trabajo que le llame la atención?,7,blue,0,4,4,4,0,3,3,3,21.267431399999623,,,,,,,,,,,,,,,21.22828970000046,21.337113800000225,21.267431399999623,378311,001,2024-04-28_12h57.39.364,ArchivoPrueba,2024.1.1,None,2024-04-28 12h57.58.255563 -0500,
" ¿Recuerda el recorrido desde la entrada de su lugar de trabajo hasta su oficina, donde realiza sus funciones?",9,yellow,0,4,4,4,0,4,4,4,21.384591199999704,,,,,,,,,,,,,,,21.33880280000085,21.413016500000595,21.384591199999704,378311,001,2024-04-28_12h57.39.364,ArchivoPrueba,2024.1.1,None,2024-04-28 12h57.58.255563 -0500,
¿Recuerda alguna actividad que realice durante los viajes de regreso a casa desde el trabajo para relajarse?,11,orange,0,4,4,4,0,5,5,5,21.450683999999455,,,,,,,,,,,,,,,21.414254700001038,21.521118200000274,21.450683999999455,378311,001,2024-04-28_12h57.39.364,ArchivoPrueba,2024.1.1,None,2024-04-28 12h57.58.255563 -0500,
¿Recuerda el trayecto que realiza desde su casa hasta el lugar donde realiza sus compras?,13,brown,0,4,4,4,0,6,6,6,21.568100800001048,,,,,,,,,,,,,,,21.522447499999544,21.651425399999425,21.568100800001048,378311,001,2024-04-28_12h57.39.364,ArchivoPrueba,2024.1.1,None,2024-04-28 12h57.58.255563 -0500,
¿Recuerda alguna situación divertida o interesante que haya experimentado durante el recorrido hacia el lugar de compras?,15,purple,0,4,4,4,0,7,7,7,21.701457799999844,,,,,,,,,,,,,,,21.65505680000024,21.724002400000245,21.701457799999844,378311,001,2024-04-28_12h57.39.364,ArchivoPrueba,2024.1.1,None,2024-04-28 12h57.58.255563 -0500,
 ¿Recuerda qué es lo primero que ve al llegar al lugar donde realiza sus compras?,17,green,0,4,4,4,0,8,8,8,21.76812880000034,,,,,,,,,,,,,,,21.725531000000046,21.834621300000435,21.76812880000034,378311,001,2024-04-28_12h57.39.364,ArchivoPrueba,2024.1.1,None,2024-04-28 12h57.58.255563 -0500,
¿Recuerda el recorrido desde su residencia hasta el centro de resonancia magnética?,19,red,0,4,4,4,0,9,9,9,21.866856800001187,,,,,,,,,,,,,,,21.836174199999732,21.93748080000114,21.866856800001187,378311,001,2024-04-28_12h57.39.364,ArchivoPrueba,2024.1.1,None,2024-04-28 12h57.58.255563 -0500,
None,21,white,0,4,4,4,0,10,10,10,21.967203199999858,,,,,,,,,,,,,,,21.93880790000003,22.039693400000033,21.967203199999858,378311,001,2024-04-28_12h57.39.364,ArchivoPrueba,2024.1.1,None,2024-04-28 12h57.58.255563 -0500,
None,23,blue,0,4,4,4,0,11,11,11,22.083437400000548,,,,,,,,,,,,,,,22.040895600001022,22.153367700000672,22.083437400000548,378311,001,2024-04-28_12h57.39.364,ArchivoPrueba,2024.1.1,None,2024-04-28 12h57.58.255563 -0500,
None,25,yellow,0,4,4,4,0,12,12,12,22.20033760000115,,,,,,,,,,,,,,,22.154761300000246,22.225486600000295,22.20033760000115,378311,001,2024-04-28_12h57.39.364,ArchivoPrueba,2024.1.1,None,2024-04-28 12h57.58.255563 -0500,
None,27,orange,0,4,4,4,0,13,13,13,22.267403800000466,,,,,,,,,,,,,,,22.228653800000757,22.34594389999984,22.267403800000466,378311,001,2024-04-28_12h57.39.364,ArchivoPrueba,2024.1.1,None,2024-04-28 12h57.58.255563 -0500,
None,29,brown,0,4,4,4,0,14,14,14,22.383426000000327,,,,,,,,,,,,,,,22.34712489999947,22.455961900001057,22.383426000000327,378311,001,2024-04-28_12h57.39.364,ArchivoPrueba,2024.1.1,None,2024-04-28 12h57.58.255563 -0500,
None,31,purple,0,4,4,4,0,15,15,15,22.49990389999948,,,,,,,,,,,,,,,22.457363800000167,22.523744899999656,22.49990389999948,378311,001,2024-04-28_12h57.39.364,ArchivoPrueba,2024.1.1,None,2024-04-28 12h57.58.255563 -0500,
None,33,green,0,4,4,4,0,16,16,16,22.56739379999999,,,,,,,,,,,,,,,22.525263900000937,22.640522900001088,22.56739379999999,378311,001,2024-04-28_12h57.39.364,ArchivoPrueba,2024.1.1,None,2024-04-28 12h57.58.255563 -0500,
None,35,red,0,4,4,4,0,17,17,17,22.68284020000101,,,,,,,,,,,,,,,22.642129699999714,22.76281419999941,22.68284020000101,378311,001,2024-04-28_12h57.39.364,ArchivoPrueba,2024.1.1,None,2024-04-28 12h57.58.255563 -0500,
None,37,white,0,4,4,4,0,18,18,18,22.799776800000473,,,,,,,,,,,,,,,22.76433309999993,22.821157100001074,22.799776800000473,378311,001,2024-04-28_12h57.39.364,ArchivoPrueba,2024.1.1,None,2024-04-28 12h57.58.255563 -0500,
None,39,blue,0,4,4,4,0,19,19,19,22.86626190000061,,,,,,,,,,,,,,,22.822435699999915,22.924761500000386,22.86626190000061,378311,001,2024-04-28_12h57.39.364,ArchivoPrueba,2024.1.1,None,2024-04-28 12h57.58.255563 -0500,
" ¿Recuerda el recorrido desde la entrada de su lugar de trabajo hasta su oficina, donde realiza sus funciones?",9,yellow,0,4,4,4,,,,,,,,,,,,,,,,,,,,,,,378311,001,2024-04-28_12h57.39.364,ArchivoPrueba,2024.1.1,None,2024-04-28 12h57.58.255563 -0500,
¿Recuerda el recorrido que realiza desde su cama hasta la cocina de su residencia?,1,green,0,5,5,5,0,0,0,0,23.99821929999962,,,,,,,,,,,,22.929273400000966,22.99990869999965,23.918039100000897,23.964158400000088,24.025823100000707,23.99821929999962,378311,001,2024-04-28_12h57.39.364,ArchivoPrueba,2024.1.1,None,2024-04-28 12h57.58.255563 -0500,
¿Recuerda el trayecto que hace desde su casa hasta su lugar de trabajo?,3,red,0,5,5,5,0,1,1,1,24.081105999999636,,,,,,,,,,,,,,,24.028168000000733,24.13434000000052,24.081105999999636,378311,001,2024-04-28_12h57.39.364,ArchivoPrueba,2024.1.1,None,2024-04-28 12h57.58.255563 -0500,
¿Recuerda  algún inconveniente que ha  experimentado en el camino de su residencia a su lugar de trabajo?,5,white,0,5,5,5,0,2,2,2,24.181455600000845,,,,,,,,,,,,,,,24.13572260000001,24.24020550000023,24.181455600000845,378311,001,2024-04-28_12h57.39.364,ArchivoPrueba,2024.1.1,None,2024-04-28 12h57.58.255563 -0500,
¿Recuerda si hay algún lugar u objeto en su camino hacia el trabajo que le llame la atención?,7,blue,0,5,5,5,0,3,3,3,24.282195499999943,,,,,,,,,,,,,,,24.243069500000274,24.308657200001107,24.282195499999943,378311,001,2024-04-28_12h57.39.364,ArchivoPrueba,2024.1.1,None,2024-04-28 12h57.58.255563 -0500,
" ¿Recuerda el recorrido desde la entrada de su lugar de trabajo hasta su oficina, donde realiza sus funciones?",9,yellow,0,5,5,5,0,4,4,4,24.348060399999667,,,,,,,,,,,,,,,24.311210899999423,24.416612299999542,24.348060399999667,378311,001,2024-04-28_12h57.39.364,ArchivoPrueba,2024.1.1,None,2024-04-28 12h57.58.255563 -0500,
¿Recuerda alguna actividad que realice durante los viajes de regreso a casa desde el trabajo para relajarse?,11,orange,0,5,5,5,0,5,5,5,24.448097500000586,,,,,,,,,,,,,,,24.41776000000027,24.525351399999636,24.448097500000586,378311,001,2024-04-28_12h57.39.364,ArchivoPrueba,2024.1.1,None,2024-04-28 12h57.58.255563 -0500,
¿Recuerda el trayecto que realiza desde su casa hasta el lugar donde realiza sus compras?,13,brown,0,5,5,5,0,6,6,6,24.581488800000443,,,,,,,,,,,,,,,24.52734650000093,24.606423900000664,24.581488800000443,378311,001,2024-04-28_12h57.39.364,ArchivoPrueba,2024.1.1,None,2024-04-28 12h57.58.255563 -0500,
¿Recuerda alguna situación divertida o interesante que haya experimentado durante el recorrido hacia el lugar de compras?,15,purple,0,5,5,5,0,7,7,7,24.6477902000006,,,,,,,,,,,,,,,24.608921299999565,24.714163099999496,24.6477902000006,378311,001,2024-04-28_12h57.39.364,ArchivoPrueba,2024.1.1,None,2024-04-28 12h57.58.255563 -0500,
 ¿Recuerda qué es lo primero que ve al llegar al lugar donde realiza sus compras?,17,green,0,5,5,5,0,8,8,8,24.74777879999965,,,,,,,,,,,,,,,24.71540880000066,24.823181199999453,24.74777879999965,378311,001,2024-04-28_12h57.39.364,ArchivoPrueba,2024.1.1,None,2024-04-28 12h57.58.255563 -0500,
¿Recuerda el recorrido desde su residencia hasta el centro de resonancia magnética?,19,red,0,5,5,5,0,9,9,9,24.86429450000105,,,,,,,,,,,,,,,24.82628509999995,24.929964400000244,24.86429450000105,378311,001,2024-04-28_12h57.39.364,ArchivoPrueba,2024.1.1,None,2024-04-28 12h57.58.255563 -0500,
None,21,white,0,5,5,5,0,10,10,10,24.963616099999854,,,,,,,,,,,,,,,24.931378700001005,25.015034399999422,24.963616099999854,378311,001,2024-04-28_12h57.39.364,ArchivoPrueba,2024.1.1,None,2024-04-28 12h57.58.255563 -0500,
None,23,blue,0,5,5,5,0,11,11,11,25.064290100001017,,,,,,,,,,,,,,,25.0161793999996,25.112898200000927,25.064290100001017,378311,001,2024-04-28_12h57.39.364,ArchivoPrueba,2024.1.1,None,2024-04-28 12h57.58.255563 -0500,
None,25,yellow,0,5,5,5,0,12,12,12,25.147426200001064,,,,,,,,,,,,,,,25.114257400000497,25.231439900000623,25.147426200001064,378311,001,2024-04-28_12h57.39.364,ArchivoPrueba,2024.1.1,None,2024-04-28 12h57.58.255563 -0500,
None,27,orange,0,5,5,5,0,13,13,13,25.263735200000156,,,,,,,,,,,,,,,25.23247740000079,25.3143555000006,25.263735200000156,378311,001,2024-04-28_12h57.39.364,ArchivoPrueba,2024.1.1,None,2024-04-28 12h57.58.255563 -0500,
None,29,brown,0,5,5,5,0,14,14,14,25.347256099999868,,,,,,,,,,,,,,,25.315457900000183,25.431775600000037,25.347256099999868,378311,001,2024-04-28_12h57.39.364,ArchivoPrueba,2024.1.1,None,2024-04-28 12h57.58.255563 -0500,
None,31,purple,0,5,5,5,0,15,15,15,25.463637400000152,,,,,,,,,,,,,,,25.433014700000058,25.514002699999764,25.463637400000152,378311,001,2024-04-28_12h57.39.364,ArchivoPrueba,2024.1.1,None,2024-04-28 12h57.58.255563 -0500,
None,33,green,0,5,5,5,0,16,16,16,25.54683930000101,,,,,,,,,,,,,,,25.515095599999768,25.630043099999966,25.54683930000101,378311,001,2024-04-28_12h57.39.364,ArchivoPrueba,2024.1.1,None,2024-04-28 12h57.58.255563 -0500,
None,35,red,0,5,5,5,0,17,17,17,25.663621499999863,,,,,,,,,,,,,,,25.631223500000488,25.71596810000119,25.663621499999863,378311,001,2024-04-28_12h57.39.364,ArchivoPrueba,2024.1.1,None,2024-04-28 12h57.58.255563 -0500,
None,37,white,0,5,5,5,0,18,18,18,25.746626000000106,,,,,,,,,,,,,,,25.717062600000645,25.830079400000614,25.746626000000106,378311,001,2024-04-28_12h57.39.364,ArchivoPrueba,2024.1.1,None,2024-04-28 12h57.58.255563 -0500,
None,39,blue,0,5,5,5,0,19,19,19,25.8633506999995,,,,,,,,,,,,,,,25.831212200000664,25.91184120000071,25.8633506999995,378311,001,2024-04-28_12h57.39.364,ArchivoPrueba,2024.1.1,None,2024-04-28 12h57.58.255563 -0500,
¿Recuerda alguna actividad que realice durante los viajes de regreso a casa desde el trabajo para relajarse?,11,orange,0,5,5,5,,,,,,,,,,,,,,,,,,,,,,,378311,001,2024-04-28_12h57.39.364,ArchivoPrueba,2024.1.1,None,2024-04-28 12h57.58.255563 -0500,
¿Recuerda el recorrido que realiza desde su cama hasta la cocina de su residencia?,1,green,0,6,6,6,0,0,0,0,27.01242380000076,,,,,,,,,,,,25.913265900000624,25.963372000000163,26.915421300000162,26.96958480000103,27.03318990000116,27.01242380000076,378311,001,2024-04-28_12h57.39.364,ArchivoPrueba,2024.1.1,None,2024-04-28 12h57.58.255563 -0500,
¿Recuerda el trayecto que hace desde su casa hasta su lugar de trabajo?,3,red,0,6,6,6,0,1,1,1,27.078403400000752,,,,,,,,,,,,,,,27.034484100000554,27.12774990000071,27.078403400000752,378311,001,2024-04-28_12h57.39.364,ArchivoPrueba,2024.1.1,None,2024-04-28 12h57.58.255563 -0500,
¿Recuerda  algún inconveniente que ha  experimentado en el camino de su residencia a su lugar de trabajo?,5,white,0,6,6,6,0,2,2,2,27.161575600001015,,,,,,,,,,,,,,,27.129315199999837,27.233353699999498,27.161575600001015,378311,001,2024-04-28_12h57.39.364,ArchivoPrueba,2024.1.1,None,2024-04-28 12h57.58.255563 -0500,
¿Recuerda si hay algún lugar u objeto en su camino hacia el trabajo que le llame la atención?,7,blue,0,6,6,6,0,3,3,3,27.27844510000068,,,,,,,,,,,,,,,27.23468810000122,27.331545000000915,27.27844510000068,378311,001,2024-04-28_12h57.39.364,ArchivoPrueba,2024.1.1,None,2024-04-28 12h57.58.255563 -0500,
" ¿Recuerda el recorrido desde la entrada de su lugar de trabajo hasta su oficina, donde realiza sus funciones?",9,yellow,0,6,6,6,0,4,4,4,27.362071699999433,,,,,,,,,,,,,,,27.332706999999573,27.427709200001118,27.362071699999433,378311,001,2024-04-28_12h57.39.364,ArchivoPrueba,2024.1.1,None,2024-04-28 12h57.58.255563 -0500,
¿Recuerda alguna actividad que realice durante los viajes de regreso a casa desde el trabajo para relajarse?,11,orange,0,6,6,6,0,5,5,5,27.46179149999989,,,,,,,,,,,,,,,27.428881900001215,27.510533200000282,27.46179149999989,378311,001,2024-04-28_12h57.39.364,ArchivoPrueba,2024.1.1,None,2024-04-28 12h57.58.255563 -0500,
¿Recuerda el trayecto que realiza desde su casa hasta el lugar donde realiza sus compras?,13,brown,0,6,6,6,0,6,6,6,27.544678500000373,,,,,,,,,,,,,,,27.51177000000098,27.629750399999466,27.544678500000373,378311,001,2024-04-28_12h57.39.364,ArchivoPrueba,2024.1.1,None,2024-04-28 12h57.58.255563 -0500,
¿Recuerda alguna situación divertida o interesante que haya experimentado durante el recorrido hacia el lugar de compras?,15,purple,0,6,6,6,0,7,7,7,27.66178890000083,,,,,,,,,,,,,,,27.63105759999962,27.72897340000054,27.66178890000083,378311,001,2024-04-28_12h57.39.364,ArchivoPrueba,2024.1.1,None,2024-04-28 12h57.58.255563 -0500,
 ¿Recuerda qué es lo primero que ve al llegar al lugar donde realiza sus compras?,17,green,0,6,6,6,0,8,8,8,27.76225119999981,,,,,,,,,,,,,,,27.730201500000476,27.81104140000025,27.76225119999981,378311,001,2024-04-28_12h57.39.364,ArchivoPrueba,2024.1.1,None,2024-04-28 12h57.58.255563 -0500,
¿Recuerda el recorrido desde su residencia hasta el centro de resonancia magnética?,19,red,0,6,6,6,0,9,9,9,27.845192700000553,,,,,,,,,,,,,,,27.81237340000007,27.9278374000005,27.845192700000553,378311,001,2024-04-28_12h57.39.364,ArchivoPrueba,2024.1.1,None,2024-04-28 12h57.58.255563 -0500,
None,21,white,0,6,6,6,0,10,10,10,27.96135839999988,,,,,,,,,,,,,,,27.929831900000863,28.012233900000865,27.96135839999988,378311,001,2024-04-28_12h57.39.364,ArchivoPrueba,2024.1.1,None,2024-04-28 12h57.58.255563 -0500,
None,23,blue,0,6,6,6,0,11,11,11,28.061332700001003,,,,,,,,,,,,,,,28.013722699999562,28.110571999999593,28.061332700001003,378311,001,2024-04-28_12h57.39.364,ArchivoPrueba,2024.1.1,None,2024-04-28 12h57.58.255563 -0500,
None,25,yellow,0,6,6,6,0,12,12,12,28.144771799999944,,,,,,,,,,,,,,,28.111742700000832,28.225742500000706,28.144771799999944,378311,001,2024-04-28_12h57.39.364,ArchivoPrueba,2024.1.1,None,2024-04-28 12h57.58.255563 -0500,
None,27,orange,0,6,6,6,0,13,13,13,28.261223299999983,,,,,,,,,,,,,,,28.22760759999983,28.311236200001076,28.261223299999983,378311,001,2024-04-28_12h57.39.364,ArchivoPrueba,2024.1.1,None,2024-04-28 12h57.58.255563 -0500,
None,29,brown,0,6,6,6,0,14,14,14,28.344134700000723,,,,,,,,,,,,,,,28.312373700000535,28.42896660000042,28.344134700000723,378311,001,2024-04-28_12h57.39.364,ArchivoPrueba,2024.1.1,None,2024-04-28 12h57.58.255563 -0500,
None,31,purple,0,6,6,6,0,15,15,15,28.460875700000543,,,,,,,,,,,,,,,28.43007369999941,28.512338599999566,28.460875700000543,378311,001,2024-04-28_12h57.39.364,ArchivoPrueba,2024.1.1,None,2024-04-28 12h57.58.255563 -0500,
None,33,green,0,6,6,6,0,16,16,16,28.54462860000058,,,,,,,,,,,,,,,28.513474700001098,28.610860599999796,28.54462860000058,378311,001,2024-04-28_12h57.39.364,ArchivoPrueba,2024.1.1,None,2024-04-28 12h57.58.255563 -0500,
None,35,red,0,6,6,6,0,17,17,17,28.64387379999971,,,,,,,,,,,,,,,28.612001800000144,28.71324529999947,28.64387379999971,378311,001,2024-04-28_12h57.39.364,ArchivoPrueba,2024.1.1,None,2024-04-28 12h57.58.255563 -0500,
None,37,white,0,6,6,6,0,18,18,18,28.744645700000547,,,,,,,,,,,,,,,28.71443900000122,28.81594650000079,28.744645700000547,378311,001,2024-04-28_12h57.39.364,ArchivoPrueba,2024.1.1,None,2024-04-28 12h57.58.255563 -0500,
None,39,blue,0,6,6,6,0,19,19,19,28.860781499999575,,,,,,,,,,,,,,,28.8172512000001,28.927830900000117,28.860781499999575,378311,001,2024-04-28_12h57.39.364,ArchivoPrueba,2024.1.1,None,2024-04-28 12h57.58.255563 -0500,
¿Recuerda el trayecto que realiza desde su casa hasta el lugar donde realiza sus compras?,13,brown,0,6,6,6,,,,,,,,,,,,,,,,,,,,,,,378311,001,2024-04-28_12h57.39.364,ArchivoPrueba,2024.1.1,None,2024-04-28 12h57.58.255563 -0500,
¿Recuerda el recorrido que realiza desde su cama hasta la cocina de su residencia?,1,green,0,7,7,7,0,0,0,0,29.993122300000323,,,,,,,,,,,,28.92937830000119,28.977125600000363,29.929126999999426,29.967296099999658,30.01055980000092,29.993122300000323,378311,001,2024-04-28_12h57.39.364,ArchivoPrueba,2024.1.1,None,2024-04-28 12h57.58.255563 -0500,
¿Recuerda el trayecto que hace desde su casa hasta su lugar de trabajo?,3,red,0,7,7,7,0,1,1,1,30.04354070000045,,,,,,,,,,,,,,,30.011652700000923,30.127328800001123,30.04354070000045,378311,001,2024-04-28_12h57.39.364,ArchivoPrueba,2024.1.1,None,2024-04-28 12h57.58.255563 -0500,
¿Recuerda  algún inconveniente que ha  experimentado en el camino de su residencia a su lugar de trabajo?,5,white,0,7,7,7,0,2,2,2,30.15934399999969,,,,,,,,,,,,,,,30.128469799999948,30.209418200000073,30.15934399999969,378311,001,2024-04-28_12h57.39.364,ArchivoPrueba,2024.1.1,None,2024-04-28 12h57.58.255563 -0500,
¿Recuerda si hay algún lugar u objeto en su camino hacia el trabajo que le llame la atención?,7,blue,0,7,7,7,0,3,3,3,30.242893900000126,,,,,,,,,,,,,,,30.210585700000593,30.32661510000071,30.242893900000126,378311,001,2024-04-28_12h57.39.364,ArchivoPrueba,2024.1.1,None,2024-04-28 12h57.58.255563 -0500,
" ¿Recuerda el recorrido desde la entrada de su lugar de trabajo hasta su oficina, donde realiza sus funciones?",9,yellow,0,7,7,7,0,4,4,4,30.359353499999997,,,,,,,,,,,,,,,30.32770259999961,30.409176600000137,30.359353499999997,378311,001,2024-04-28_12h57.39.364,ArchivoPrueba,2024.1.1,None,2024-04-28 12h57.58.255563 -0500,
¿Recuerda alguna actividad que realice durante los viajes de regreso a casa desde el trabajo para relajarse?,11,orange,0,7,7,7,0,5,5,5,30.44268110000121,,,,,,,,,,,,,,,30.410385799999858,30.51075680000031,30.44268110000121,378311,001,2024-04-28_12h57.39.364,ArchivoPrueba,2024.1.1,None,2024-04-28 12h57.58.255563 -0500,
¿Recuerda el trayecto que realiza desde su casa hasta el lugar donde realiza sus compras?,13,brown,0,7,7,7,0,6,6,6,30.543060300000434,,,,,,,,,,,,,,,30.51180370000111,30.62666150000041,30.543060300000434,378311,001,2024-04-28_12h57.39.364,ArchivoPrueba,2024.1.1,None,2024-04-28 12h57.58.255563 -0500,
¿Recuerda alguna situación divertida o interesante que haya experimentado durante el recorrido hacia el lugar de compras?,15,purple,0,7,7,7,0,7,7,7,30.659134300000005,,,,,,,,,,,,,,,30.627780700000585,30.710141900000963,30.659134300000005,378311,001,2024-04-28_12h57.39.364,ArchivoPrueba,2024.1.1,None,2024-04-28 12h57.58.255563 -0500,
 ¿Recuerda qué es lo primero que ve al llegar al lugar donde realiza sus compras?,17,green,0,7,7,7,0,8,8,8,30.742608500000642,,,,,,,,,,,,,,,30.711318499999834,30.826853800001118,30.742608500000642,378311,001,2024-04-28_12h57.39.364,ArchivoPrueba,2024.1.1,None,2024-04-28 12h57.58.255563 -0500,
¿Recuerda el recorrido desde su residencia hasta el centro de resonancia magnética?,19,red,0,7,7,7,0,9,9,9,30.858755100000053,,,,,,,,,,,,,,,30.82791569999972,30.909443700000338,30.858755100000053,378311,001,2024-04-28_12h57.39.364,ArchivoPrueba,2024.1.1,None,2024-04-28 12h57.58.255563 -0500,
None,21,white,0,7,7,7,0,10,10,10,30.942215000000942,,,,,,,,,,,,,,,30.910628100000395,31.03388190000078,30.942215000000942,378311,001,2024-04-28_12h57.39.364,ArchivoPrueba,2024.1.1,None,2024-04-28 12h57.58.255563 -0500,
None,23,blue,0,7,7,7,0,11,11,11,31.07541339999989,,,,,,,,,,,,,,,31.036806800000704,31.126604700000826,31.07541339999989,378311,001,2024-04-28_12h57.39.364,ArchivoPrueba,2024.1.1,None,2024-04-28 12h57.58.255563 -0500,
None,25,yellow,0,7,7,7,0,12,12,12,31.158550899999682,,,,,,,,,,,,,,,31.127658499999598,31.208764099999826,31.158550899999682,378311,001,2024-04-28_12h57.39.364,ArchivoPrueba,2024.1.1,None,2024-04-28 12h57.58.255563 -0500,
None,27,orange,0,7,7,7,0,13,13,13,31.24200650000057,,,,,,,,,,,,,,,31.2099003000003,31.327132000000347,31.24200650000057,378311,001,2024-04-28_12h57.39.364,ArchivoPrueba,2024.1.1,None,2024-04-28 12h57.58.255563 -0500,
None,29,brown,0,7,7,7,0,14,14,14,31.35857709999982,,,,,,,,,,,,,,,31.328158899999835,31.408824100000857,31.35857709999982,378311,001,2024-04-28_12h57.39.364,ArchivoPrueba,2024.1.1,None,2024-04-28 12h57.58.255563 -0500,
None,31,purple,0,7,7,7,0,15,15,15,31.44183090000115,,,,,,,,,,,,,,,31.410055399999692,31.511754099999962,31.44183090000115,378311,001,2024-04-28_12h57.39.364,ArchivoPrueba,2024.1.1,None,2024-04-28 12h57.58.255563 -0500,
None,33,green,0,7,7,7,0,16,16,16,31.541648300000816,,,,,,,,,,,,,,,31.512766499999998,31.61175320000075,31.541648300000816,378311,001,2024-04-28_12h57.39.364,ArchivoPrueba,2024.1.1,None,2024-04-28 12h57.58.255563 -0500,
None,35,red,0,7,7,7,0,17,17,17,31.657731100000092,,,,,,,,,,,,,,,31.61307029999989,31.72924840000087,31.657731100000092,378311,001,2024-04-28_12h57.39.364,ArchivoPrueba,2024.1.1,None,2024-04-28 12h57.58.255563 -0500,
None,37,white,0,7,7,7,0,18,18,18,31.75758769999993,,,,,,,,,,,,,,,31.730420500000037,31.80795510000098,31.75758769999993,378311,001,2024-04-28_12h57.39.364,ArchivoPrueba,2024.1.1,None,2024-04-28 12h57.58.255563 -0500,
None,39,blue,0,7,7,7,0,19,19,19,31.840745999999854,,,,,,,,,,,,,,,31.809302200001184,31.92123309999988,31.840745999999854,378311,001,2024-04-28_12h57.39.364,ArchivoPrueba,2024.1.1,None,2024-04-28 12h57.58.255563 -0500,
¿Recuerda alguna situación divertida o interesante que haya experimentado durante el recorrido hacia el lugar de compras?,15,purple,0,7,7,7,,,,,,,,,,,,,,,,,,,,,,,378311,001,2024-04-28_12h57.39.364,ArchivoPrueba,2024.1.1,None,2024-04-28 12h57.58.255563 -0500,
¿Recuerda el recorrido que realiza desde su cama hasta la cocina de su residencia?,1,green,0,8,8,8,0,0,0,0,32.97338950000085,,,,,,,,,,,,31.923247400000037,31.972622400000546,32.91106680000121,32.9460111999997,33.041419600000154,32.97338950000085,378311,001,2024-04-28_12h57.39.364,ArchivoPrueba,2024.1.1,None,2024-04-28 12h57.58.255563 -0500,
¿Recuerda el trayecto que hace desde su casa hasta su lugar de trabajo?,3,red,0,8,8,8,0,1,1,1,33.07219729999997,,,,,,,,,,,,,,,33.042351100000815,33.12974140000006,33.07219729999997,378311,001,2024-04-28_12h57.39.364,ArchivoPrueba,2024.1.1,None,2024-04-28 12h57.58.255563 -0500,
¿Recuerda  algún inconveniente que ha  experimentado en el camino de su residencia a su lugar de trabajo?,5,white,0,8,8,8,0,2,2,2,33.15520959999958,,,,,,,,,,,,,,,33.130256700000245,33.21249019999959,33.15520959999958,378311,001,2024-04-28_12h57.39.364,ArchivoPrueba,2024.1.1,None,2024-04-28 12h57.58.255563 -0500,
¿Recuerda si hay algún lugar u objeto en su camino hacia el trabajo que le llame la atención?,7,blue,0,8,8,8,0,3,3,3,33.2386103000008,,,,,,,,,,,,,,,33.21307499999966,33.315389700001106,33.2386103000008,378311,001,2024-04-28_12h57.39.364,ArchivoPrueba,2024.1.1,None,2024-04-28 12h57.58.255563 -0500,
" ¿Recuerda el recorrido desde la entrada de su lugar de trabajo hasta su oficina, donde realiza sus funciones?",9,yellow,0,8,8,8,0,4,4,4,33.33847659999992,,,,,,,,,,,,,,,33.31605070000114,33.414009399999486,33.33847659999992,378311,001,2024-04-28_12h57.39.364,ArchivoPrueba,2024.1.1,None,2024-04-28 12h57.58.255563 -0500,
¿Recuerda alguna actividad que realice durante los viajes de regreso a casa desde el trabajo para relajarse?,11,orange,0,8,8,8,0,5,5,5,33.43831090000094,,,,,,,,,,,,,,,33.41456930000095,33.52805360000093,33.43831090000094,378311,001,2024-04-28_12h57.39.364,ArchivoPrueba,2024.1.1,None,2024-04-28 12h57.58.255563 -0500,
¿Recuerda el trayecto que realiza desde su casa hasta el lugar donde realiza sus compras?,13,brown,0,8,8,8,0,6,6,6,33.55488390000028,,,,,,,,,,,,,,,33.52855190000082,33.612361299999975,33.55488390000028,378311,001,2024-04-28_12h57.39.364,ArchivoPrueba,2024.1.1,None,2024-04-28 12h57.58.255563 -0500,
¿Recuerda alguna situación divertida o interesante que haya experimentado durante el recorrido hacia el lugar de compras?,15,purple,0,8,8,8,0,7,7,7,33.6382035000006,,,,,,,,,,,,,,,33.6130260000009,33.71657530000084,33.6382035000006,378311,001,2024-04-28_12h57.39.364,ArchivoPrueba,2024.1.1,None,2024-04-28 12h57.58.255563 -0500,
 ¿Recuerda qué es lo primero que ve al llegar al lugar donde realiza sus compras?,17,green,0,8,8,8,0,8,8,8,33.73802009999963,,,,,,,,,,,,,,,33.71736679999958,33.82757579999998,33.73802009999963,378311,001,2024-04-28_12h57.39.364,ArchivoPrueba,2024.1.1,None,2024-04-28 12h57.58.255563 -0500,
¿Recuerda el recorrido desde su residencia hasta el centro de resonancia magnética?,19,red,0,8,8,8,0,9,9,9,33.85466989999986,,,,,,,,,,,,,,,33.82810249999966,33.91513180000038,33.85466989999986,378311,001,2024-04-28_12h57.39.364,ArchivoPrueba,2024.1.1,None,2024-04-28 12h57.58.255563 -0500,
None,21,white,0,8,8,8,0,10,10,10,33.9379229999995,,,,,,,,,,,,,,,33.91628810000111,34.015738399999464,33.9379229999995,378311,001,2024-04-28_12h57.39.364,ArchivoPrueba,2024.1.1,None,2024-04-28 12h57.58.255563 -0500,
None,23,blue,0,8,8,8,0,11,11,11,34.03777170000103,,,,,,,,,,,,,,,34.01651280000078,34.114072500000475,34.03777170000103,378311,001,2024-04-28_12h57.39.364,ArchivoPrueba,2024.1.1,None,2024-04-28 12h57.58.255563 -0500,
None,25,yellow,0,8,8,8,0,12,12,12,34.13768479999999,,,,,,,,,,,,,,,34.11460889999944,34.211774200000946,34.13768479999999,378311,001,2024-04-28_12h57.39.364,ArchivoPrueba,2024.1.1,None,2024-04-28 12h57.58.255563 -0500,
None,27,orange,0,8,8,8,0,13,13,13,34.23766830000022,,,,,,,,,,,,,,,34.212304500000755,34.329124600000796,34.23766830000022,378311,001,2024-04-28_12h57.39.364,ArchivoPrueba,2024.1.1,None,2024-04-28 12h57.58.255563 -0500,
None,29,brown,0,8,8,8,0,14,14,14,34.35458280000057,,,,,,,,,,,,,,,34.32993139999962,34.41265449999992,34.35458280000057,378311,001,2024-04-28_12h57.39.364,ArchivoPrueba,2024.1.1,None,2024-04-28 12h57.58.255563 -0500,
None,31,purple,0,8,8,8,0,15,15,15,34.43759820000014,,,,,,,,,,,,,,,34.41320970000015,34.52937910000037,34.43759820000014,378311,001,2024-04-28_12h57.39.364,ArchivoPrueba,2024.1.1,None,2024-04-28 12h57.58.255563 -0500,
None,33,green,0,8,8,8,0,16,16,16,34.55419530000108,,,,,,,,,,,,,,,34.52990839999984,34.62822570000026,34.55419530000108,378311,001,2024-04-28_12h57.39.364,ArchivoPrueba,2024.1.1,None,2024-04-28 12h57.58.255563 -0500,
None,35,red,0,8,8,8,0,17,17,17,34.654438699999446,,,,,,,,,,,,,,,34.62879090000024,34.72787939999944,34.654438699999446,378311,001,2024-04-28_12h57.39.364,ArchivoPrueba,2024.1.1,None,2024-04-28 12h57.58.255563 -0500,
None,37,white,0,8,8,8,0,18,18,18,34.75377640000079,,,,,,,,,,,,,,,34.728435799999716,34.81753840000056,34.75377640000079,378311,001,2024-04-28_12h57.39.364,ArchivoPrueba,2024.1.1,None,2024-04-28 12h57.58.255563 -0500,
None,39,blue,0,8,8,8,0,19,19,19,34.83749549999993,,,,,,,,,,,,,,,34.81864710000082,34.91160750000017,34.83749549999993,378311,001,2024-04-28_12h57.39.364,ArchivoPrueba,2024.1.1,None,2024-04-28 12h57.58.255563 -0500,
 ¿Recuerda qué es lo primero que ve al llegar al lugar donde realiza sus compras?,17,green,0,8,8,8,,,,,,,,,,,,,,,,,,,,,,,378311,001,2024-04-28_12h57.39.364,ArchivoPrueba,2024.1.1,None,2024-04-28 12h57.58.255563 -0500,
¿Recuerda el recorrido que realiza desde su cama hasta la cocina de su residencia?,1,green,0,9,9,9,0,0,0,0,35.952849200000855,,,,,,,,,,,,34.912361700000474,34.93746790000114,35.9092154000009,35.92700390000027,36.01557200000025,35.952849200000855,378311,001,2024-04-28_12h57.39.364,ArchivoPrueba,2024.1.1,None,2024-04-28 12h57.58.255563 -0500,
¿Recuerda el trayecto que hace desde su casa hasta su lugar de trabajo?,3,red,0,9,9,9,0,1,1,1,36.03610149999986,,,,,,,,,,,,,,,36.01639360000081,36.12751010000102,36.03610149999986,378311,001,2024-04-28_12h57.39.364,ArchivoPrueba,2024.1.1,None,2024-04-28 12h57.58.255563 -0500,
¿Recuerda  algún inconveniente que ha  experimentado en el camino de su residencia a su lugar de trabajo?,5,white,0,9,9,9,0,2,2,2,36.15287370000078,,,,,,,,,,,,,,,36.12812160000067,36.22696569999971,36.15287370000078,378311,001,2024-04-28_12h57.39.364,ArchivoPrueba,2024.1.1,None,2024-04-28 12h57.58.255563 -0500,
¿Recuerda si hay algún lugar u objeto en su camino hacia el trabajo que le llame la atención?,7,blue,0,9,9,9,0,3,3,3,36.252599700001156,,,,,,,,,,,,,,,36.227775600000314,36.310422200000176,36.252599700001156,378311,001,2024-04-28_12h57.39.364,ArchivoPrueba,2024.1.1,None,2024-04-28 12h57.58.255563 -0500,
" ¿Recuerda el recorrido desde la entrada de su lugar de trabajo hasta su oficina, donde realiza sus funciones?",9,yellow,0,9,9,9,0,4,4,4,36.33582729999944,,,,,,,,,,,,,,,36.310950299999604,36.42514669999946,36.33582729999944,378311,001,2024-04-28_12h57.39.364,ArchivoPrueba,2024.1.1,None,2024-04-28 12h57.58.255563 -0500,
¿Recuerda alguna actividad que realice durante los viajes de regreso a casa desde el trabajo para relajarse?,11,orange,0,9,9,9,0,5,5,5,36.45262600000024,,,,,,,,,,,,,,,36.425672600000325,36.52563670000018,36.45262600000024,378311,001,2024-04-28_12h57.39.364,ArchivoPrueba,2024.1.1,None,2024-04-28 12h57.58.255563 -0500,
¿Recuerda el trayecto que realiza desde su casa hasta el lugar donde realiza sus compras?,13,brown,0,9,9,9,0,6,6,6,36.55232910000086,,,,,,,,,,,,,,,36.526176000001215,36.61200950000057,36.55232910000086,378311,001,2024-04-28_12h57.39.364,ArchivoPrueba,2024.1.1,None,2024-04-28 12h57.58.255563 -0500,
¿Recuerda alguna situación divertida o interesante que haya experimentado durante el recorrido hacia el lugar de compras?,15,purple,0,9,9,9,0,7,7,7,36.63578050000069,,,,,,,,,,,,,,,36.61259160000009,36.70890060000056,36.63578050000069,378311,001,2024-04-28_12h57.39.364,ArchivoPrueba,2024.1.1,None,2024-04-28 12h57.58.255563 -0500,
 ¿Recuerda qué es lo primero que ve al llegar al lugar donde realiza sus compras?,17,green,0,9,9,9,0,8,8,8,36.735478700000385,,,,,,,,,,,,,,,36.70970119999947,36.82657690000087,36.735478700000385,378311,001,2024-04-28_12h57.39.364,ArchivoPrueba,2024.1.1,None,2024-04-28 12h57.58.255563 -0500,
¿Recuerda el recorrido desde su residencia hasta el centro de resonancia magnética?,19,red,0,9,9,9,0,9,9,9,36.852305100001104,,,,,,,,,,,,,,,36.82723369999985,36.91001789999973,36.852305100001104,378311,001,2024-04-28_12h57.39.364,ArchivoPrueba,2024.1.1,None,2024-04-28 12h57.58.255563 -0500,
None,21,white,0,9,9,9,0,10,10,10,36.93527890000041,,,,,,,,,,,,,,,36.91068500000074,37.01360620000014,36.93527890000041,378311,001,2024-04-28_12h57.39.364,ArchivoPrueba,2024.1.1,None,2024-04-28 12h57.58.255563 -0500,
None,23,blue,0,9,9,9,0,11,11,11,37.03523490000043,,,,,,,,,,,,,,,37.014358500000526,37.10790670000097,37.03523490000043,378311,001,2024-04-28_12h57.39.364,ArchivoPrueba,2024.1.1,None,2024-04-28 12h57.58.255563 -0500,
None,25,yellow,0,9,9,9,0,12,12,12,37.13502569999946,,,,,,,,,,,,,,,37.108559800000876,37.22868109999945,37.13502569999946,378311,001,2024-04-28_12h57.39.364,ArchivoPrueba,2024.1.1,None,2024-04-28 12h57.58.255563 -0500,
None,27,orange,0,9,9,9,0,13,13,13,37.252463400000124,,,,,,,,,,,,,,,37.22982690000026,37.336956200000714,37.252463400000124,378311,001,2024-04-28_12h57.39.364,ArchivoPrueba,2024.1.1,None,2024-04-28 12h57.58.255563 -0500,
None,29,brown,0,9,9,9,0,14,14,14,37.369073600000775,,,,,,,,,,,,,,,37.33777310000005,37.41249160000007,37.369073600000775,378311,001,2024-04-28_12h57.39.364,ArchivoPrueba,2024.1.1,None,2024-04-28 12h57.58.255563 -0500,
None,31,purple,0,9,9,9,0,15,15,15,37.435783200000515,,,,,,,,,,,,,,,37.413916400000744,37.51232590000109,37.435783200000515,378311,001,2024-04-28_12h57.39.364,ArchivoPrueba,2024.1.1,None,2024-04-28 12h57.58.255563 -0500,
None,33,green,0,9,9,9,0,16,16,16,37.53575620000083,,,,,,,,,,,,,,,37.51348610000059,37.61195360000056,37.53575620000083,378311,001,2024-04-28_12h57.39.364,ArchivoPrueba,2024.1.1,None,2024-04-28 12h57.58.255563 -0500,
None,35,red,0,9,9,9,0,17,17,17,37.63551240000015,,,,,,,,,,,,,,,37.61311790000036,37.71194520000063,37.63551240000015,378311,001,2024-04-28_12h57.39.364,ArchivoPrueba,2024.1.1,None,2024-04-28 12h57.58.255563 -0500,
None,37,white,0,9,9,9,0,18,18,18,37.7356376000007,,,,,,,,,,,,,,,37.7132959999999,37.81188839999959,37.7356376000007,378311,001,2024-04-28_12h57.39.364,ArchivoPrueba,2024.1.1,None,2024-04-28 12h57.58.255563 -0500,
None,39,blue,0,9,9,9,0,19,19,19,37.835273900000175,,,,,,,,,,,,,,,37.813345700000355,37.911715500000355,37.835273900000175,378311,001,2024-04-28_12h57.39.364,ArchivoPrueba,2024.1.1,None,2024-04-28 12h57.58.255563 -0500,
¿Recuerda el recorrido desde su residencia hasta el centro de resonancia magnética?,19,red,0,9,9,9,,,,,,,,,,,,,,,,,,,,,,,378311,001,2024-04-28_12h57.39.364,ArchivoPrueba,2024.1.1,None,2024-04-28 12h57.58.255563 -0500,
¿Recuerda el recorrido que realiza desde su cama hasta la cocina de su residencia?,1,green,0,10,10,10,0,0,0,0,38.98445309999988,,,,,,,,,,,,37.913744999999835,37.95202090000021,38.92728449999959,38.9542177000003,39.03352590000031,38.98445309999988,378311,001,2024-04-28_12h57.39.364,ArchivoPrueba,2024.1.1,None,2024-04-28 12h57.58.255563 -0500,
¿Recuerda el trayecto que hace desde su casa hasta su lugar de trabajo?,3,red,0,10,10,10,0,1,1,1,39.06755169999997,,,,,,,,,,,,,,,39.03460760000053,39.1129949999995,39.06755169999997,378311,001,2024-04-28_12h57.39.364,ArchivoPrueba,2024.1.1,None,2024-04-28 12h57.58.255563 -0500,
¿Recuerda  algún inconveniente que ha  experimentado en el camino de su residencia a su lugar de trabajo?,5,white,0,10,10,10,0,2,2,2,39.13438020000103,,,,,,,,,,,,,,,39.11413200000061,39.21054170000025,39.13438020000103,378311,001,2024-04-28_12h57.39.364,ArchivoPrueba,2024.1.1,None,2024-04-28 12h57.58.255563 -0500,
¿Recuerda si hay algún lugar u objeto en su camino hacia el trabajo que le llame la atención?,7,blue,0,10,10,10,0,3,3,3,39.2341305000009,,,,,,,,,,,,,,,39.212121300000945,39.30948119999994,39.2341305000009,378311,001,2024-04-28_12h57.39.364,ArchivoPrueba,2024.1.1,None,2024-04-28 12h57.58.255563 -0500,
" ¿Recuerda el recorrido desde la entrada de su lugar de trabajo hasta su oficina, donde realiza sus funciones?",9,yellow,0,10,10,10,0,4,4,4,39.33414769999945,,,,,,,,,,,,,,,39.31018550000044,39.41069310000057,39.33414769999945,378311,001,2024-04-28_12h57.39.364,ArchivoPrueba,2024.1.1,None,2024-04-28 12h57.58.255563 -0500,
¿Recuerda alguna actividad que realice durante los viajes de regreso a casa desde el trabajo para relajarse?,11,orange,0,10,10,10,0,5,5,5,39.4336330999995,,,,,,,,,,,,,,,39.41194060000089,39.51323589999993,39.4336330999995,378311,001,2024-04-28_12h57.39.364,ArchivoPrueba,2024.1.1,None,2024-04-28 12h57.58.255563 -0500,
¿Recuerda el trayecto que realiza desde su casa hasta el lugar donde realiza sus compras?,13,brown,0,10,10,10,0,6,6,6,39.55056610000065,,,,,,,,,,,,,,,39.51444559999982,39.62822729999971,39.55056610000065,378311,001,2024-04-28_12h57.39.364,ArchivoPrueba,2024.1.1,None,2024-04-28 12h57.58.255563 -0500,
¿Recuerda alguna situación divertida o interesante que haya experimentado durante el recorrido hacia el lugar de compras?,15,purple,0,10,10,10,0,7,7,7,39.650524399999995,,,,,,,,,,,,,,,39.62937629999942,39.7267623000007,39.650524399999995,378311,001,2024-04-28_12h57.39.364,ArchivoPrueba,2024.1.1,None,2024-04-28 12h57.58.255563 -0500,
 ¿Recuerda qué es lo primero que ve al llegar al lugar donde realiza sus compras?,17,green,0,10,10,10,0,8,8,8,39.75030189999961,,,,,,,,,,,,,,,39.727867600000536,39.826836500000354,39.75030189999961,378311,001,2024-04-28_12h57.39.364,ArchivoPrueba,2024.1.1,None,2024-04-28 12h57.58.255563 -0500,
¿Recuerda el recorrido desde su residencia hasta el centro de resonancia magnética?,19,red,0,10,10,10,0,9,9,9,39.85026990000006,,,,,,,,,,,,,,,39.828200100000686,39.927623499999754,39.85026990000006,378311,001,2024-04-28_12h57.39.364,ArchivoPrueba,2024.1.1,None,2024-04-28 12h57.58.255563 -0500,
None,21,white,0,10,10,10,0,10,10,10,39.95008280000002,,,,,,,,,,,,,,,39.928390500001115,40.03224659999978,39.95008280000002,378311,001,2024-04-28_12h57.39.364,ArchivoPrueba,2024.1.1,None,2024-04-28 12h57.58.255563 -0500,
None,23,blue,0,10,10,10,0,11,11,11,40.0666997999997,,,,,,,,,,,,,,,40.033452900001066,40.10986220000086,40.0666997999997,378311,001,2024-04-28_12h57.39.364,ArchivoPrueba,2024.1.1,None,2024-04-28 12h57.58.255563 -0500,
None,25,yellow,0,10,10,10,0,12,12,12,40.133380999999645,,,,,,,,,,,,,,,40.1112764999998,40.209431200000836,40.133380999999645,378311,001,2024-04-28_12h57.39.364,ArchivoPrueba,2024.1.1,None,2024-04-28 12h57.58.255563 -0500,
None,27,orange,0,10,10,10,0,13,13,13,40.23327690000042,,,,,,,,,,,,,,,40.21040240000002,40.30943970000044,40.23327690000042,378311,001,2024-04-28_12h57.39.364,ArchivoPrueba,2024.1.1,None,2024-04-28 12h57.58.255563 -0500,
None,29,brown,0,10,10,10,0,14,14,14,40.33324290000019,,,,,,,,,,,,,,,40.31051810000099,40.40944950000085,40.33324290000019,378311,001,2024-04-28_12h57.39.364,ArchivoPrueba,2024.1.1,None,2024-04-28 12h57.58.255563 -0500,
None,31,purple,0,10,10,10,0,15,15,15,40.432722900000954,,,,,,,,,,,,,,,40.41067590000057,40.5094038999996,40.432722900000954,378311,001,2024-04-28_12h57.39.364,ArchivoPrueba,2024.1.1,None,2024-04-28 12h57.58.255563 -0500,
None,33,green,0,10,10,10,0,16,16,16,40.53308360000119,,,,,,,,,,,,,,,40.510841499999515,40.60941300000013,40.53308360000119,378311,001,2024-04-28_12h57.39.364,ArchivoPrueba,2024.1.1,None,2024-04-28 12h57.58.255563 -0500,
None,35,red,0,10,10,10,0,17,17,17,40.632896600000095,,,,,,,,,,,,,,,40.61084710000068,40.709926200001064,40.632896600000095,378311,001,2024-04-28_12h57.39.364,ArchivoPrueba,2024.1.1,None,2024-04-28 12h57.58.255563 -0500,
None,37,white,0,10,10,10,0,18,18,18,40.74949150000066,,,,,,,,,,,,,,,40.7112803,40.82698460000029,40.74949150000066,378311,001,2024-04-28_12h57.39.364,ArchivoPrueba,2024.1.1,None,2024-04-28 12h57.58.255563 -0500,
None,39,blue,0,10,10,10,0,19,19,19,40.849293999999645,,,,,,,,,,,,,,,40.82777499999975,40.92550599999959,40.849293999999645,378311,001,2024-04-28_12h57.39.364,ArchivoPrueba,2024.1.1,None,2024-04-28 12h57.58.255563 -0500,
None,21,white,0,10,10,10,,,,,,,,,,,,,,,,,,,,,,,378311,001,2024-04-28_12h57.39.364,ArchivoPrueba,2024.1.1,None,2024-04-28 12h57.58.255563 -0500,
¿Recuerda el recorrido que realiza desde su cama hasta la cocina de su residencia?,1,green,0,11,11,11,0,0,0,0,41.96533099999942,,,,,,,,,,,,40.92679660000067,40.96597800000018,41.91213120000066,41.940243299999565,42.03244319999976,41.96533099999942,378311,001,2024-04-28_12h57.39.364,ArchivoPrueba,2024.1.1,None,2024-04-28 12h57.58.255563 -0500,
¿Recuerda el trayecto que hace desde su casa hasta su lugar de trabajo?,3,red,0,11,11,11,0,1,1,1,42.06721740000103,,,,,,,,,,,,,,,42.033978200001,42.12495669999953,42.06721740000103,378311,001,2024-04-28_12h57.39.364,ArchivoPrueba,2024.1.1,None,2024-04-28 12h57.58.255563 -0500,
¿Recuerda  algún inconveniente que ha  experimentado en el camino de su residencia a su lugar de trabajo?,5,white,0,11,11,11,0,2,2,2,42.14844799999992,,,,,,,,,,,,,,,42.12622290000036,42.224983000000066,42.14844799999992,378311,001,2024-04-28_12h57.39.364,ArchivoPrueba,2024.1.1,None,2024-04-28 12h57.58.255563 -0500,
¿Recuerda si hay algún lugar u objeto en su camino hacia el trabajo que le llame la atención?,7,blue,0,11,11,11,0,3,3,3,42.248139000001174,,,,,,,,,,,,,,,42.22630560000107,42.323505500000465,42.248139000001174,378311,001,2024-04-28_12h57.39.364,ArchivoPrueba,2024.1.1,None,2024-04-28 12h57.58.255563 -0500,
" ¿Recuerda el recorrido desde la entrada de su lugar de trabajo hasta su oficina, donde realiza sus funciones?",9,yellow,0,11,11,11,0,4,4,4,42.347798099999636,,,,,,,,,,,,,,,42.32425280000098,42.42571880000105,42.347798099999636,378311,001,2024-04-28_12h57.39.364,ArchivoPrueba,2024.1.1,None,2024-04-28 12h57.58.255563 -0500,
¿Recuerda alguna actividad que realice durante los viajes de regreso a casa desde el trabajo para relajarse?,11,orange,0,11,11,11,0,5,5,5,42.46468020000066,,,,,,,,,,,,,,,42.42687570000089,42.507795699999406,42.46468020000066,378311,001,2024-04-28_12h57.39.364,ArchivoPrueba,2024.1.1,None,2024-04-28 12h57.58.255563 -0500,
¿Recuerda el trayecto que realiza desde su casa hasta el lugar donde realiza sus compras?,13,brown,0,11,11,11,0,6,6,6,42.53140739999981,,,,,,,,,,,,,,,42.508989899999506,42.60782780000045,42.53140739999981,378311,001,2024-04-28_12h57.39.364,ArchivoPrueba,2024.1.1,None,2024-04-28 12h57.58.255563 -0500,
¿Recuerda alguna situación divertida o interesante que haya experimentado durante el recorrido hacia el lugar de compras?,15,purple,0,11,11,11,0,7,7,7,42.63094020000062,,,,,,,,,,,,,,,42.60898840000118,42.713311200001044,42.63094020000062,378311,001,2024-04-28_12h57.39.364,ArchivoPrueba,2024.1.1,None,2024-04-28 12h57.58.255563 -0500,
 ¿Recuerda qué es lo primero que ve al llegar al lugar donde realiza sus compras?,17,green,0,11,11,11,0,8,8,8,42.74813060000088,,,,,,,,,,,,,,,42.714429100000416,42.829947100000936,42.74813060000088,378311,001,2024-04-28_12h57.39.364,ArchivoPrueba,2024.1.1,None,2024-04-28 12h57.58.255563 -0500,
¿Recuerda el recorrido desde su residencia hasta el centro de resonancia magnética?,19,red,0,11,11,11,0,9,9,9,42.86480250000022,,,,,,,,,,,,,,,42.83122270000058,42.91273430000001,42.86480250000022,378311,001,2024-04-28_12h57.39.364,ArchivoPrueba,2024.1.1,None,2024-04-28 12h57.58.255563 -0500,
None,21,white,0,11,11,11,0,10,10,10,42.9478837000006,,,,,,,,,,,,,,,42.914281200000914,43.032686500000636,42.9478837000006,378311,001,2024-04-28_12h57.39.364,ArchivoPrueba,2024.1.1,None,2024-04-28 12h57.58.255563 -0500,
None,23,blue,0,11,11,11,0,11,11,11,43.065219600001,,,,,,,,,,,,,,,43.0339770999999,43.11247329999969,43.065219600001,378311,001,2024-04-28_12h57.39.364,ArchivoPrueba,2024.1.1,None,2024-04-28 12h57.58.255563 -0500,
None,25,yellow,0,11,11,11,0,12,12,12,43.14858020000065,,,,,,,,,,,,,,,43.11375989999942,43.215761600000405,43.14858020000065,378311,001,2024-04-28_12h57.39.364,ArchivoPrueba,2024.1.1,None,2024-04-28 12h57.58.255563 -0500,
None,27,orange,0,11,11,11,0,13,13,13,43.247382800000196,,,,,,,,,,,,,,,43.21669240000119,43.328735200000665,43.247382800000196,378311,001,2024-04-28_12h57.39.364,ArchivoPrueba,2024.1.1,None,2024-04-28 12h57.58.255563 -0500,
None,29,brown,0,11,11,11,0,14,14,14,43.36431459999949,,,,,,,,,,,,,,,43.330413900001076,43.4121496000007,43.36431459999949,378311,001,2024-04-28_12h57.39.364,ArchivoPrueba,2024.1.1,None,2024-04-28 12h57.58.255563 -0500,
None,31,purple,0,11,11,11,0,15,15,15,43.44736960000046,,,,,,,,,,,,,,,43.41330349999953,43.52931010000066,43.44736960000046,378311,001,2024-04-28_12h57.39.364,ArchivoPrueba,2024.1.1,None,2024-04-28 12h57.58.255563 -0500,
None,33,green,0,11,11,11,0,16,16,16,43.564291599999706,,,,,,,,,,,,,,,43.53063199999997,43.61346880000019,43.564291599999706,378311,001,2024-04-28_12h57.39.364,ArchivoPrueba,2024.1.1,None,2024-04-28 12h57.58.255563 -0500,
None,35,red,0,11,11,11,0,17,17,17,43.64717849999943,,,,,,,,,,,,,,,43.61458549999952,43.727220700000544,43.64717849999943,378311,001,2024-04-28_12h57.39.364,ArchivoPrueba,2024.1.1,None,2024-04-28 12h57.58.255563 -0500,
None,37,white,0,11,11,11,0,18,18,18,43.76384929999949,,,,,,,,,,,,,,,43.728667499999574,43.810892100000274,43.76384929999949,378311,001,2024-04-28_12h57.39.364,ArchivoPrueba,2024.1.1,None,2024-04-28 12h57.58.255563 -0500,
None,39,blue,0,11,11,11,0,19,19,19,43.847481900000275,,,,,,,,,,,,,,,43.81252660000064,43.92771900000116,43.847481900000275,378311,001,2024-04-28_12h57.39.364,ArchivoPrueba,2024.1.1,None,2024-04-28 12h57.58.255563 -0500,
None,23,blue,0,11,11,11,,,,,,,,,,,,,,,,,,,,,,,378311,001,2024-04-28_12h57.39.364,ArchivoPrueba,2024.1.1,None,2024-04-28 12h57.58.255563 -0500,
¿Recuerda el recorrido que realiza desde su cama hasta la cocina de su residencia?,1,green,0,12,12,12,0,0,0,0,44.99608889999945,,,,,,,,,,,,43.92922390000058,43.96408700000029,44.93024359999981,44.96641860000091,45.009191799999826,44.99608889999945,378311,001,2024-04-28_12h57.39.364,ArchivoPrueba,2024.1.1,None,2024-04-28 12h57.58.255563 -0500,
¿Recuerda el trayecto que hace desde su casa hasta su lugar de trabajo?,3,red,0,12,12,12,0,1,1,1,45.04633769999964,,,,,,,,,,,,,,,45.01048840000112,45.125988300000245,45.04633769999964,378311,001,2024-04-28_12h57.39.364,ArchivoPrueba,2024.1.1,None,2024-04-28 12h57.58.255563 -0500,
¿Recuerda  algún inconveniente que ha  experimentado en el camino de su residencia a su lugar de trabajo?,5,white,0,12,12,12,0,2,2,2,45.16276670000116,,,,,,,,,,,,,,,45.12754820000009,45.20820690000073,45.16276670000116,378311,001,2024-04-28_12h57.39.364,ArchivoPrueba,2024.1.1,None,2024-04-28 12h57.58.255563 -0500,
¿Recuerda si hay algún lugar u objeto en su camino hacia el trabajo que le llame la atención?,7,blue,0,12,12,12,0,3,3,3,45.24585620000107,,,,,,,,,,,,,,,45.209146000001056,45.32750269999997,45.24585620000107,378311,001,2024-04-28_12h57.39.364,ArchivoPrueba,2024.1.1,None,2024-04-28 12h57.58.255563 -0500,
" ¿Recuerda el recorrido desde la entrada de su lugar de trabajo hasta su oficina, donde realiza sus funciones?",9,yellow,0,12,12,12,0,4,4,4,45.36282179999944,,,,,,,,,,,,,,,45.32891370000107,45.408946300000025,45.36282179999944,378311,001,2024-04-28_12h57.39.364,ArchivoPrueba,2024.1.1,None,2024-04-28 12h57.58.255563 -0500,
¿Recuerda alguna actividad que realice durante los viajes de regreso a casa desde el trabajo para relajarse?,11,orange,0,12,12,12,0,5,5,5,45.445854800000234,,,,,,,,,,,,,,,45.410664400000314,45.52630180000051,45.445854800000234,378311,001,2024-04-28_12h57.39.364,ArchivoPrueba,2024.1.1,None,2024-04-28 12h57.58.255563 -0500,
¿Recuerda el trayecto que realiza desde su casa hasta el lugar donde realiza sus compras?,13,brown,0,12,12,12,0,6,6,6,45.5622287999995,,,,,,,,,,,,,,,45.527529799999684,45.610125200000766,45.5622287999995,378311,001,2024-04-28_12h57.39.364,ArchivoPrueba,2024.1.1,None,2024-04-28 12h57.58.255563 -0500,
¿Recuerda alguna situación divertida o interesante que haya experimentado durante el recorrido hacia el lugar de compras?,15,purple,0,12,12,12,0,7,7,7,45.64567089999946,,,,,,,,,,,,,,,45.611498800000845,45.7284808000004,45.64567089999946,378311,001,2024-04-28_12h57.39.364,ArchivoPrueba,2024.1.1,None,2024-04-28 12h57.58.255563 -0500,
 ¿Recuerda qué es lo primero que ve al llegar al lugar donde realiza sus compras?,17,green,0,12,12,12,0,8,8,8,45.76267220000045,,,,,,,,,,,,,,,45.729909800000314,45.809606599999825,45.76267220000045,378311,001,2024-04-28_12h57.39.364,ArchivoPrueba,2024.1.1,None,2024-04-28 12h57.58.255563 -0500,
¿Recuerda el recorrido desde su residencia hasta el centro de resonancia magnética?,19,red,0,12,12,12,0,9,9,9,45.84571450000112,,,,,,,,,,,,,,,45.8108626000012,45.92634890000045,45.84571450000112,378311,001,2024-04-28_12h57.39.364,ArchivoPrueba,2024.1.1,None,2024-04-28 12h57.58.255563 -0500,
None,21,white,0,12,12,12,0,10,10,10,45.96193289999974,,,,,,,,,,,,,,,45.92831280000064,46.00671570000122,45.96193289999974,378311,001,2024-04-28_12h57.39.364,ArchivoPrueba,2024.1.1,None,2024-04-28 12h57.58.255563 -0500,
None,23,blue,0,12,12,12,0,11,11,11,46.045035900000585,,,,,,,,,,,,,,,46.008083000000624,46.124784499999805,46.045035900000585,378311,001,2024-04-28_12h57.39.364,ArchivoPrueba,2024.1.1,None,2024-04-28 12h57.58.255563 -0500,
None,25,yellow,0,12,12,12,0,12,12,12,46.16179329999977,,,,,,,,,,,,,,,46.126558199999636,46.208607000000484,46.16179329999977,378311,001,2024-04-28_12h57.39.364,ArchivoPrueba,2024.1.1,None,2024-04-28 12h57.58.255563 -0500,
None,27,orange,0,12,12,12,0,13,13,13,46.245052600001145,,,,,,,,,,,,,,,46.210088100000576,46.32670800000051,46.245052600001145,378311,001,2024-04-28_12h57.39.364,ArchivoPrueba,2024.1.1,None,2024-04-28 12h57.58.255563 -0500,
None,29,brown,0,12,12,12,0,14,14,14,46.36168159999943,,,,,,,,,,,,,,,46.32829010000023,46.4067842000004,46.36168159999943,378311,001,2024-04-28_12h57.39.364,ArchivoPrueba,2024.1.1,None,2024-04-28 12h57.58.255563 -0500,
None,31,purple,0,12,12,12,0,15,15,15,46.44499619999988,,,,,,,,,,,,,,,46.40770390000034,46.52328599999964,46.44499619999988,378311,001,2024-04-28_12h57.39.364,ArchivoPrueba,2024.1.1,None,2024-04-28 12h57.58.255563 -0500,
None,33,green,0,12,12,12,0,16,16,16,46.56147659999988,,,,,,,,,,,,,,,46.52445170000101,46.609250900000916,46.56147659999988,378311,001,2024-04-28_12h57.39.364,ArchivoPrueba,2024.1.1,None,2024-04-28 12h57.58.255563 -0500,
None,35,red,0,12,12,12,0,17,17,17,46.64481019999948,,,,,,,,,,,,,,,46.61064570000053,46.723862500000905,46.64481019999948,378311,001,2024-04-28_12h57.39.364,ArchivoPrueba,2024.1.1,None,2024-04-28 12h57.58.255563 -0500,
None,37,white,0,12,12,12,0,18,18,18,46.76152080000065,,,,,,,,,,,,,,,46.72523379999984,46.80802070000027,46.76152080000065,378311,001,2024-04-28_12h57.39.364,ArchivoPrueba,2024.1.1,None,2024-04-28 12h57.58.255563 -0500,
None,39,blue,0,12,12,12,0,19,19,19,46.84488080000119,,,,,,,,,,,,,,,46.809360999999626,46.92593359999955,46.84488080000119,378311,001,2024-04-28_12h57.39.364,ArchivoPrueba,2024.1.1,None,2024-04-28 12h57.58.255563 -0500,
None,25,yellow,0,12,12,12,,,,,,,,,,,,,,,,,,,,,,,378311,001,2024-04-28_12h57.39.364,ArchivoPrueba,2024.1.1,None,2024-04-28 12h57.58.255563 -0500,
¿Recuerda el recorrido que realiza desde su cama hasta la cocina de su residencia?,1,green,0,13,13,13,0,0,0,0,47.97685310000088,,,,,,,,,,,,46.92776360000062,46.977565200000754,47.91078750000088,47.94574289999946,48.044202200000655,47.97685310000088,378311,001,2024-04-28_12h57.39.364,ArchivoPrueba,2024.1.1,None,2024-04-28 12h57.58.255563 -0500,
¿Recuerda el trayecto que hace desde su casa hasta su lugar de trabajo?,3,red,0,13,13,13,0,1,1,1,48.07687830000032,,,,,,,,,,,,,,,48.04511420000017,48.122307999999975,48.07687830000032,378311,001,2024-04-28_12h57.39.364,ArchivoPrueba,2024.1.1,None,2024-04-28 12h57.58.255563 -0500,
¿Recuerda  algún inconveniente que ha  experimentado en el camino de su residencia a su lugar de trabajo?,5,white,0,13,13,13,0,2,2,2,48.160657399999764,,,,,,,,,,,,,,,48.124063499999465,48.208033400000204,48.160657399999764,378311,001,2024-04-28_12h57.39.364,ArchivoPrueba,2024.1.1,None,2024-04-28 12h57.58.255563 -0500,
¿Recuerda si hay algún lugar u objeto en su camino hacia el trabajo que le llame la atención?,7,blue,0,13,13,13,0,3,3,3,48.24335749999955,,,,,,,,,,,,,,,48.209335600000486,48.32496050000009,48.24335749999955,378311,001,2024-04-28_12h57.39.364,ArchivoPrueba,2024.1.1,None,2024-04-28 12h57.58.255563 -0500,
" ¿Recuerda el recorrido desde la entrada de su lugar de trabajo hasta su oficina, donde realiza sus funciones?",9,yellow,0,13,13,13,0,4,4,4,48.35959019999973,,,,,,,,,,,,,,,48.326408799999626,48.40745319999951,48.35959019999973,378311,001,2024-04-28_12h57.39.364,ArchivoPrueba,2024.1.1,None,2024-04-28 12h57.58.255563 -0500,
¿Recuerda alguna actividad que realice durante los viajes de regreso a casa desde el trabajo para relajarse?,11,orange,0,13,13,13,0,5,5,5,48.44369740000002,,,,,,,,,,,,,,,48.40876440000102,48.524499500001184,48.44369740000002,378311,001,2024-04-28_12h57.39.364,ArchivoPrueba,2024.1.1,None,2024-04-28 12h57.58.255563 -0500,
¿Recuerda el trayecto que realiza desde su casa hasta el lugar donde realiza sus compras?,13,brown,0,13,13,13,0,6,6,6,48.55948759999956,,,,,,,,,,,,,,,48.525690000000395,48.60676280000007,48.55948759999956,378311,001,2024-04-28_12h57.39.364,ArchivoPrueba,2024.1.1,None,2024-04-28 12h57.58.255563 -0500,
¿Recuerda alguna situación divertida o interesante que haya experimentado durante el recorrido hacia el lugar de compras?,15,purple,0,13,13,13,0,7,7,7,48.64281250000022,,,,,,,,,,,,,,,48.60881169999993,48.72482560000026,48.64281250000022,378311,001,2024-04-28_12h57.39.364,ArchivoPrueba,2024.1.1,None,2024-04-28 12h57.58.255563 -0500,
 ¿Recuerda qué es lo primero que ve al llegar al lugar donde realiza sus compras?,17,green,0,13,13,13,0,8,8,8,48.759770800001206,,,,,,,,,,,,,,,48.7261438000005,48.806284100000994,48.759770800001206,378311,001,2024-04-28_12h57.39.364,ArchivoPrueba,2024.1.1,None,2024-04-28 12h57.58.255563 -0500,
¿Recuerda el recorrido desde su residencia hasta el centro de resonancia magnética?,19,red,0,13,13,13,0,9,9,9,48.84285640000053,,,,,,,,,,,,,,,48.80779330000041,48.92529889999969,48.84285640000053,378311,001,2024-04-28_12h57.39.364,ArchivoPrueba,2024.1.1,None,2024-04-28 12h57.58.255563 -0500,
None,21,white,0,13,13,13,0,10,10,10,48.95905440000024,,,,,,,,,,,,,,,48.92674970000007,49.008009799999854,48.95905440000024,378311,001,2024-04-28_12h57.39.364,ArchivoPrueba,2024.1.1,None,2024-04-28 12h57.58.255563 -0500,
None,23,blue,0,13,13,13,0,11,11,11,49.042663500000344,,,,,,,,,,,,,,,49.00942709999981,49.12261340000077,49.042663500000344,378311,001,2024-04-28_12h57.39.364,ArchivoPrueba,2024.1.1,None,2024-04-28 12h57.58.255563 -0500,
None,25,yellow,0,13,13,13,0,12,12,12,49.159175400000095,,,,,,,,,,,,,,,49.124005900001066,49.20845790000021,49.159175400000095,378311,001,2024-04-28_12h57.39.364,ArchivoPrueba,2024.1.1,None,2024-04-28 12h57.58.255563 -0500,
None,27,orange,0,13,13,13,0,13,13,13,49.24245139999948,,,,,,,,,,,,,,,49.20986470000025,49.32201800000075,49.24245139999948,378311,001,2024-04-28_12h57.39.364,ArchivoPrueba,2024.1.1,None,2024-04-28 12h57.58.255563 -0500,
None,29,brown,0,13,13,13,0,14,14,14,49.358933100000286,,,,,,,,,,,,,,,49.323691300000064,49.44024890000037,49.358933100000286,378311,001,2024-04-28_12h57.39.364,ArchivoPrueba,2024.1.1,None,2024-04-28 12h57.58.255563 -0500,
None,31,purple,0,13,13,13,0,15,15,15,49.47563430000082,,,,,,,,,,,,,,,49.4417910000011,49.5239461000001,49.47563430000082,378311,001,2024-04-28_12h57.39.364,ArchivoPrueba,2024.1.1,None,2024-04-28 12h57.58.255563 -0500,
None,33,green,0,13,13,13,0,16,16,16,49.558817299999646,,,,,,,,,,,,,,,49.52519460000076,49.63975390000087,49.558817299999646,378311,001,2024-04-28_12h57.39.364,ArchivoPrueba,2024.1.1,None,2024-04-28 12h57.58.255563 -0500,
None,35,red,0,13,13,13,0,17,17,17,49.67536310000105,,,,,,,,,,,,,,,49.641046200000346,49.723981000001004,49.67536310000105,378311,001,2024-04-28_12h57.39.364,ArchivoPrueba,2024.1.1,None,2024-04-28 12h57.58.255563 -0500,
None,37,white,0,13,13,13,0,18,18,18,49.758803500000795,,,,,,,,,,,,,,,49.72607869999956,49.83938880000096,49.758803500000795,378311,001,2024-04-28_12h57.39.364,ArchivoPrueba,2024.1.1,None,2024-04-28 12h57.58.255563 -0500,
None,39,blue,0,13,13,13,0,19,19,19,49.875405700000556,,,,,,,,,,,,,,,49.84083289999944,49.92305599999963,49.875405700000556,378311,001,2024-04-28_12h57.39.364,ArchivoPrueba,2024.1.1,None,2024-04-28 12h57.58.255563 -0500,
None,27,orange,0,13,13,13,,,,,,,,,,,,,,,,,,,,,,,378311,001,2024-04-28_12h57.39.364,ArchivoPrueba,2024.1.1,None,2024-04-28 12h57.58.255563 -0500,
¿Recuerda el recorrido que realiza desde su cama hasta la cocina de su residencia?,1,green,0,14,14,14,0,0,0,0,50.97448720000102,,,,,,,,,,,,49.92434210000101,49.974988400001166,50.90840170000047,50.94912320000003,51.02783099999942,50.97448720000102,378311,001,2024-04-28_12h57.39.364,ArchivoPrueba,2024.1.1,None,2024-04-28 12h57.58.255563 -0500,
¿Recuerda el trayecto que hace desde su casa hasta su lugar de trabajo?,3,red,0,14,14,14,0,1,1,1,51.05778040000041,,,,,,,,,,,,,,,51.02916379999988,51.13714830000026,51.05778040000041,378311,001,2024-04-28_12h57.39.364,ArchivoPrueba,2024.1.1,None,2024-04-28 12h57.58.255563 -0500,
¿Recuerda  algún inconveniente que ha  experimentado en el camino de su residencia a su lugar de trabajo?,5,white,0,14,14,14,0,2,2,2,51.17362030000004,,,,,,,,,,,,,,,51.13862789999985,51.21948979999979,51.17362030000004,378311,001,2024-04-28_12h57.39.364,ArchivoPrueba,2024.1.1,None,2024-04-28 12h57.58.255563 -0500,
¿Recuerda si hay algún lugar u objeto en su camino hacia el trabajo que le llame la atención?,7,blue,0,14,14,14,0,3,3,3,51.25742920000084,,,,,,,,,,,,,,,51.22104539999964,51.33747770000082,51.25742920000084,378311,001,2024-04-28_12h57.39.364,ArchivoPrueba,2024.1.1,None,2024-04-28 12h57.58.255563 -0500,
" ¿Recuerda el recorrido desde la entrada de su lugar de trabajo hasta su oficina, donde realiza sus funciones?",9,yellow,0,14,14,14,0,4,4,4,51.373979699999836,,,,,,,,,,,,,,,51.33923270000014,51.42520110000078,51.373979699999836,378311,001,2024-04-28_12h57.39.364,ArchivoPrueba,2024.1.1,None,2024-04-28 12h57.58.255563 -0500,
¿Recuerda alguna actividad que realice durante los viajes de regreso a casa desde el trabajo para relajarse?,11,orange,0,14,14,14,0,5,5,5,51.45769230000042,,,,,,,,,,,,,,,51.426536700000725,51.50902769999993,51.45769230000042,378311,001,2024-04-28_12h57.39.364,ArchivoPrueba,2024.1.1,None,2024-04-28 12h57.58.255563 -0500,
¿Recuerda el trayecto que realiza desde su casa hasta el lugar donde realiza sus compras?,13,brown,0,14,14,14,0,6,6,6,51.54080150000118,,,,,,,,,,,,,,,51.51011550000112,51.62529960000029,51.54080150000118,378311,001,2024-04-28_12h57.39.364,ArchivoPrueba,2024.1.1,None,2024-04-28 12h57.58.255563 -0500,
¿Recuerda alguna situación divertida o interesante que haya experimentado durante el recorrido hacia el lugar de compras?,15,purple,0,14,14,14,0,7,7,7,51.65710059999947,,,,,,,,,,,,,,,51.62646710000081,51.70770040000025,51.65710059999947,378311,001,2024-04-28_12h57.39.364,ArchivoPrueba,2024.1.1,None,2024-04-28 12h57.58.255563 -0500,
 ¿Recuerda qué es lo primero que ve al llegar al lugar donde realiza sus compras?,17,green,0,14,14,14,0,8,8,8,51.74073280000084,,,,,,,,,,,,,,,51.708984099999725,51.827808000000005,51.74073280000084,378311,001,2024-04-28_12h57.39.364,ArchivoPrueba,2024.1.1,None,2024-04-28 12h57.58.255563 -0500,
¿Recuerda el recorrido desde su residencia hasta el centro de resonancia magnética?,19,red,0,14,14,14,0,9,9,9,51.87367640000048,,,,,,,,,,,,,,,51.82888749999984,51.9259777999996,51.87367640000048,378311,001,2024-04-28_12h57.39.364,ArchivoPrueba,2024.1.1,None,2024-04-28 12h57.58.255563 -0500,
None,21,white,0,14,14,14,0,10,10,10,51.957271299999775,,,,,,,,,,,,,,,51.92724790000102,52.01076590000048,51.957271299999775,378311,001,2024-04-28_12h57.39.364,ArchivoPrueba,2024.1.1,None,2024-04-28 12h57.58.255563 -0500,
None,23,blue,0,14,14,14,0,11,11,11,52.0558946000001,,,,,,,,,,,,,,,52.012302200000704,52.137083900001016,52.0558946000001,378311,001,2024-04-28_12h57.39.364,ArchivoPrueba,2024.1.1,None,2024-04-28 12h57.58.255563 -0500,
None,25,yellow,0,14,14,14,0,12,12,12,52.15565779999997,,,,,,,,,,,,,,,52.138270600000396,52.23213880000003,52.15565779999997,378311,001,2024-04-28_12h57.39.364,ArchivoPrueba,2024.1.1,None,2024-04-28 12h57.58.255563 -0500,
None,27,orange,0,14,14,14,0,13,13,13,52.255993099999614,,,,,,,,,,,,,,,52.23280580000028,52.32940000000053,52.255993099999614,378311,001,2024-04-28_12h57.39.364,ArchivoPrueba,2024.1.1,None,2024-04-28 12h57.58.255563 -0500,
None,29,brown,0,14,14,14,0,14,14,14,52.35560000000078,,,,,,,,,,,,,,,52.33000560000073,52.41175699999985,52.35560000000078,378311,001,2024-04-28_12h57.39.364,ArchivoPrueba,2024.1.1,None,2024-04-28 12h57.58.255563 -0500,
None,31,purple,0,14,14,14,0,15,15,15,52.43932510000013,,,,,,,,,,,,,,,52.41269570000077,52.52131349999945,52.43932510000013,378311,001,2024-04-28_12h57.39.364,ArchivoPrueba,2024.1.1,None,2024-04-28 12h57.58.255563 -0500,
None,33,green,0,14,14,14,0,16,16,16,52.5558731000001,,,,,,,,,,,,,,,52.522822500000984,52.63749380000081,52.5558731000001,378311,001,2024-04-28_12h57.39.364,ArchivoPrueba,2024.1.1,None,2024-04-28 12h57.58.255563 -0500,
None,35,red,0,14,14,14,0,17,17,17,52.67295449999983,,,,,,,,,,,,,,,52.63867720000053,52.72142560000066,52.67295449999983,378311,001,2024-04-28_12h57.39.364,ArchivoPrueba,2024.1.1,None,2024-04-28 12h57.58.255563 -0500,
None,37,white,0,14,14,14,0,18,18,18,52.75648790000014,,,,,,,,,,,,,,,52.72290070000054,52.83565959999942,52.75648790000014,378311,001,2024-04-28_12h57.39.364,ArchivoPrueba,2024.1.1,None,2024-04-28 12h57.58.255563 -0500,
None,39,blue,0,14,14,14,0,19,19,19,52.87225980000039,,,,,,,,,,,,,,,52.837691200000336,52.920742000000246,52.87225980000039,378311,001,2024-04-28_12h57.39.364,ArchivoPrueba,2024.1.1,None,2024-04-28 12h57.58.255563 -0500,
None,29,brown,0,14,14,14,,,,,,,,,,,,,,,,,,,,,,,378311,001,2024-04-28_12h57.39.364,ArchivoPrueba,2024.1.1,None,2024-04-28 12h57.58.255563 -0500,
¿Recuerda el recorrido que realiza desde su cama hasta la cocina de su residencia?,1,green,0,15,15,15,0,0,0,0,53.98844420000023,,,,,,,,,,,,52.92262529999971,52.97227990000101,53.918706100001145,53.95451350000076,54.041909900000974,53.98844420000023,378311,001,2024-04-28_12h57.39.364,ArchivoPrueba,2024.1.1,None,2024-04-28 12h57.58.255563 -0500,
¿Recuerda el trayecto que hace desde su casa hasta su lugar de trabajo?,3,red,0,15,15,15,0,1,1,1,54.071842299999844,,,,,,,,,,,,,,,54.04279400000087,54.117922600000384,54.071842299999844,378311,001,2024-04-28_12h57.39.364,ArchivoPrueba,2024.1.1,None,2024-04-28 12h57.58.255563 -0500,
¿Recuerda  algún inconveniente que ha  experimentado en el camino de su residencia a su lugar de trabajo?,5,white,0,15,15,15,0,2,2,2,54.15500330000032,,,,,,,,,,,,,,,54.1193887999998,54.2352948000007,54.15500330000032,378311,001,2024-04-28_12h57.39.364,ArchivoPrueba,2024.1.1,None,2024-04-28 12h57.58.255563 -0500,
¿Recuerda si hay algún lugar u objeto en su camino hacia el trabajo que le llame la atención?,7,blue,0,15,15,15,0,3,3,3,54.27136160000009,,,,,,,,,,,,,,,54.2366832000007,54.31834660000095,54.27136160000009,378311,001,2024-04-28_12h57.39.364,ArchivoPrueba,2024.1.1,None,2024-04-28 12h57.58.255563 -0500,
" ¿Recuerda el recorrido desde la entrada de su lugar de trabajo hasta su oficina, donde realiza sus funciones?",9,yellow,0,15,15,15,0,4,4,4,54.35456560000057,,,,,,,,,,,,,,,54.31989799999974,54.43531890000122,54.35456560000057,378311,001,2024-04-28_12h57.39.364,ArchivoPrueba,2024.1.1,None,2024-04-28 12h57.58.255563 -0500,
¿Recuerda alguna actividad que realice durante los viajes de regreso a casa desde el trabajo para relajarse?,11,orange,0,15,15,15,0,5,5,5,54.4710326000004,,,,,,,,,,,,,,,54.436482799999794,54.51864159999968,54.4710326000004,378311,001,2024-04-28_12h57.39.364,ArchivoPrueba,2024.1.1,None,2024-04-28 12h57.58.255563 -0500,
¿Recuerda el trayecto que realiza desde su casa hasta el lugar donde realiza sus compras?,13,brown,0,15,15,15,0,6,6,6,54.55481580000014,,,,,,,,,,,,,,,54.51979250000113,54.63566019999962,54.55481580000014,378311,001,2024-04-28_12h57.39.364,ArchivoPrueba,2024.1.1,None,2024-04-28 12h57.58.255563 -0500,
¿Recuerda alguna situación divertida o interesante que haya experimentado durante el recorrido hacia el lugar de compras?,15,purple,0,15,15,15,0,7,7,7,54.670788999999786,,,,,,,,,,,,,,,54.63749749999988,54.71919979999984,54.670788999999786,378311,001,2024-04-28_12h57.39.364,ArchivoPrueba,2024.1.1,None,2024-04-28 12h57.58.255563 -0500,
 ¿Recuerda qué es lo primero que ve al llegar al lugar donde realiza sus compras?,17,green,0,15,15,15,0,8,8,8,54.75411809999969,,,,,,,,,,,,,,,54.72045550000075,54.83752950000053,54.75411809999969,378311,001,2024-04-28_12h57.39.364,ArchivoPrueba,2024.1.1,None,2024-04-28 12h57.58.255563 -0500,
¿Recuerda el recorrido desde su residencia hasta el centro de resonancia magnética?,19,red,0,15,15,15,0,9,9,9,54.87120610000056,,,,,,,,,,,,,,,54.838712300001134,54.91649590000088,54.87120610000056,378311,001,2024-04-28_12h57.39.364,ArchivoPrueba,2024.1.1,None,2024-04-28 12h57.58.255563 -0500,
None,21,white,0,15,15,15,0,10,10,10,54.95395110000027,,,,,,,,,,,,,,,54.91766129999996,55.03909170000043,54.95395110000027,378311,001,2024-04-28_12h57.39.364,ArchivoPrueba,2024.1.1,None,2024-04-28 12h57.58.255563 -0500,
None,23,blue,0,15,15,15,0,11,11,11,55.07110250000005,,,,,,,,,,,,,,,55.04025279999951,55.119555900000705,55.07110250000005,378311,001,2024-04-28_12h57.39.364,ArchivoPrueba,2024.1.1,None,2024-04-28 12h57.58.255563 -0500,
None,25,yellow,0,15,15,15,0,12,12,12,55.15374979999979,,,,,,,,,,,,,,,55.12073899999996,55.233871599999475,55.15374979999979,378311,001,2024-04-28_12h57.39.364,ArchivoPrueba,2024.1.1,None,2024-04-28 12h57.58.255563 -0500,
None,27,orange,0,15,15,15,0,13,13,13,55.27035230000001,,,,,,,,,,,,,,,55.2352819000007,55.31745450000017,55.27035230000001,378311,001,2024-04-28_12h57.39.364,ArchivoPrueba,2024.1.1,None,2024-04-28 12h57.58.255563 -0500,
None,29,brown,0,15,15,15,0,14,14,14,55.353651600000376,,,,,,,,,,,,,,,55.319110100001126,55.43447870000091,55.353651600000376,378311,001,2024-04-28_12h57.39.364,ArchivoPrueba,2024.1.1,None,2024-04-28 12h57.58.255563 -0500,
None,31,purple,0,15,15,15,0,15,15,15,55.47021380000115,,,,,,,,,,,,,,,55.43576740000026,55.516548100000364,55.47021380000115,378311,001,2024-04-28_12h57.39.364,ArchivoPrueba,2024.1.1,None,2024-04-28 12h57.58.255563 -0500,
None,33,green,0,15,15,15,0,16,16,16,55.55387150000024,,,,,,,,,,,,,,,55.517580499999895,55.635560599999735,55.55387150000024,378311,001,2024-04-28_12h57.39.364,ArchivoPrueba,2024.1.1,None,2024-04-28 12h57.58.255563 -0500,
None,35,red,0,15,15,15,0,17,17,17,55.670063699999446,,,,,,,,,,,,,,,55.63667280000118,55.716243900000336,55.670063699999446,378311,001,2024-04-28_12h57.39.364,ArchivoPrueba,2024.1.1,None,2024-04-28 12h57.58.255563 -0500,
None,37,white,0,15,15,15,0,18,18,18,55.75346030000037,,,,,,,,,,,,,,,55.71777040000052,55.83333119999952,55.75346030000037,378311,001,2024-04-28_12h57.39.364,ArchivoPrueba,2024.1.1,None,2024-04-28 12h57.58.255563 -0500,
None,39,blue,0,15,15,15,0,19,19,19,55.87006040000051,,,,,,,,,,,,,,,55.83482250000088,55.91579939999974,55.87006040000051,378311,001,2024-04-28_12h57.39.364,ArchivoPrueba,2024.1.1,None,2024-04-28 12h57.58.255563 -0500,
None,31,purple,0,15,15,15,,,,,,,,,,,,,,,,,,,,,,,378311,001,2024-04-28_12h57.39.364,ArchivoPrueba,2024.1.1,None,2024-04-28 12h57.58.255563 -0500,
¿Recuerda el recorrido que realiza desde su cama hasta la cocina de su residencia?,1,green,0,16,16,16,0,0,0,0,57.02608660000078,,,,,,,,,,,,55.91728340000009,55.95372210000096,56.92930499999966,56.96674359999997,57.05423370000062,57.02608660000078,378311,001,2024-04-28_12h57.39.364,ArchivoPrueba,2024.1.1,None,2024-04-28 12h57.58.255563 -0500,
¿Recuerda el trayecto que hace desde su casa hasta su lugar de trabajo?,3,red,0,16,16,16,0,1,1,1,57.10515429999941,,,,,,,,,,,,,,,57.05616940000073,57.11922720000075,57.10515429999941,378311,001,2024-04-28_12h57.39.364,ArchivoPrueba,2024.1.1,None,2024-04-28 12h57.58.255563 -0500,
¿Recuerda  algún inconveniente que ha  experimentado en el camino de su residencia a su lugar de trabajo?,5,white,0,16,16,16,0,2,2,2,57.15582600000016,,,,,,,,,,,,,,,57.12054139999964,57.22060930000043,57.15582600000016,378311,001,2024-04-28_12h57.39.364,ArchivoPrueba,2024.1.1,None,2024-04-28 12h57.58.255563 -0500,
¿Recuerda si hay algún lugar u objeto en su camino hacia el trabajo que le llame la atención?,7,blue,0,16,16,16,0,3,3,3,57.25243010000122,,,,,,,,,,,,,,,57.22185890000037,57.33375200000046,57.25243010000122,378311,001,2024-04-28_12h57.39.364,ArchivoPrueba,2024.1.1,None,2024-04-28 12h57.58.255563 -0500,
" ¿Recuerda el recorrido desde la entrada de su lugar de trabajo hasta su oficina, donde realiza sus funciones?",9,yellow,0,16,16,16,0,4,4,4,57.36914120000074,,,,,,,,,,,,,,,57.33512069999961,57.42126070000086,57.36914120000074,378311,001,2024-04-28_12h57.39.364,ArchivoPrueba,2024.1.1,None,2024-04-28 12h57.58.255563 -0500,
¿Recuerda alguna actividad que realice durante los viajes de regreso a casa desde el trabajo para relajarse?,11,orange,0,16,16,16,0,5,5,5,57.4525162000009,,,,,,,,,,,,,,,57.42245399999956,57.53509979999944,57.4525162000009,378311,001,2024-04-28_12h57.39.364,ArchivoPrueba,2024.1.1,None,2024-04-28 12h57.58.255563 -0500,
¿Recuerda el trayecto que realiza desde su casa hasta el lugar donde realiza sus compras?,13,brown,0,16,16,16,0,6,6,6,57.56890290000047,,,,,,,,,,,,,,,57.53659080000034,57.621097799999916,57.56890290000047,378311,001,2024-04-28_12h57.39.364,ArchivoPrueba,2024.1.1,None,2024-04-28 12h57.58.255563 -0500,
¿Recuerda alguna situación divertida o interesante que haya experimentado durante el recorrido hacia el lugar de compras?,15,purple,0,16,16,16,0,7,7,7,57.65213210000002,,,,,,,,,,,,,,,57.622131699999954,57.73307019999993,57.65213210000002,378311,001,2024-04-28_12h57.39.364,ArchivoPrueba,2024.1.1,None,2024-04-28 12h57.58.255563 -0500,
 ¿Recuerda qué es lo primero que ve al llegar al lugar donde realiza sus compras?,17,green,0,16,16,16,0,8,8,8,57.768945699999676,,,,,,,,,,,,,,,57.73522630000116,57.8201724999999,57.768945699999676,378311,001,2024-04-28_12h57.39.364,ArchivoPrueba,2024.1.1,None,2024-04-28 12h57.58.255563 -0500,
¿Recuerda el recorrido desde su residencia hasta el centro de resonancia magnética?,19,red,0,16,16,16,0,9,9,9,57.851912100000845,,,,,,,,,,,,,,,57.82140369999979,57.9360901,57.851912100000845,378311,001,2024-04-28_12h57.39.364,ArchivoPrueba,2024.1.1,None,2024-04-28 12h57.58.255563 -0500,
None,21,white,0,16,16,16,0,10,10,10,57.968564900000274,,,,,,,,,,,,,,,57.93740989999969,58.01899410000078,57.968564900000274,378311,001,2024-04-28_12h57.39.364,ArchivoPrueba,2024.1.1,None,2024-04-28 12h57.58.255563 -0500,
None,23,blue,0,16,16,16,0,11,11,11,58.05236010000044,,,,,,,,,,,,,,,58.02016560000084,58.12017800000103,58.05236010000044,378311,001,2024-04-28_12h57.39.364,ArchivoPrueba,2024.1.1,None,2024-04-28 12h57.58.255563 -0500,
None,25,yellow,0,16,16,16,0,12,12,12,58.15114600000015,,,,,,,,,,,,,,,58.12144720000106,58.23062220000065,58.15114600000015,378311,001,2024-04-28_12h57.39.364,ArchivoPrueba,2024.1.1,None,2024-04-28 12h57.58.255563 -0500,
None,27,orange,0,16,16,16,0,13,13,13,58.26766090000092,,,,,,,,,,,,,,,58.231906799999706,58.31495890000042,58.26766090000092,378311,001,2024-04-28_12h57.39.364,ArchivoPrueba,2024.1.1,None,2024-04-28 12h57.58.255563 -0500,
None,29,brown,0,16,16,16,0,14,14,14,58.35134570000082,,,,,,,,,,,,,,,58.31648760000098,58.434976800001095,58.35134570000082,378311,001,2024-04-28_12h57.39.364,ArchivoPrueba,2024.1.1,None,2024-04-28 12h57.58.255563 -0500,
None,31,purple,0,16,16,16,0,15,15,15,58.46793290000096,,,,,,,,,,,,,,,58.43635170000016,58.54272739999942,58.46793290000096,378311,001,2024-04-28_12h57.39.364,ArchivoPrueba,2024.1.1,None,2024-04-28 12h57.58.255563 -0500,
None,33,green,0,16,16,16,0,16,16,16,58.58790729999964,,,,,,,,,,,,,,,58.54447340000115,58.608175800000026,58.58790729999964,378311,001,2024-04-28_12h57.39.364,ArchivoPrueba,2024.1.1,None,2024-04-28 12h57.58.255563 -0500,
None,35,red,0,16,16,16,0,17,17,17,58.65356109999993,,,,,,,,,,,,,,,58.60930039999948,58.71867510000084,58.65356109999993,378311,001,2024-04-28_12h57.39.364,ArchivoPrueba,2024.1.1,None,2024-04-28 12h57.58.255563 -0500,
None,37,white,0,16,16,16,0,18,18,18,58.750979700000244,,,,,,,,,,,,,,,58.7199228999998,58.835155799999484,58.750979700000244,378311,001,2024-04-28_12h57.39.364,ArchivoPrueba,2024.1.1,None,2024-04-28 12h57.58.255563 -0500,
None,39,blue,0,16,16,16,0,19,19,19,58.86752879999949,,,,,,,,,,,,,,,58.836329800000385,58.91915809999955,58.86752879999949,378311,001,2024-04-28_12h57.39.364,ArchivoPrueba,2024.1.1,None,2024-04-28 12h57.58.255563 -0500,
None,33,green,0,16,16,16,,,,,,,,,,,,,,,,,,,,,,,378311,001,2024-04-28_12h57.39.364,ArchivoPrueba,2024.1.1,None,2024-04-28 12h57.58.255563 -0500,
¿Recuerda el recorrido que realiza desde su cama hasta la cocina de su residencia?,1,green,0,17,17,17,0,0,0,0,60.00000039999941,,,,,,,,,,,,58.92053140000098,58.967960300000414,59.9329656000009,59.97053930000038,60.01877340000101,60.00000039999941,378311,001,2024-04-28_12h57.39.364,ArchivoPrueba,2024.1.1,None,2024-04-28 12h57.58.255563 -0500,
¿Recuerda el trayecto que hace desde su casa hasta su lugar de trabajo?,3,red,0,17,17,17,0,1,1,1,60.050258600000234,,,,,,,,,,,,,,,60.01982560000033,60.119095600000946,60.050258600000234,378311,001,2024-04-28_12h57.39.364,ArchivoPrueba,2024.1.1,None,2024-04-28 12h57.58.255563 -0500,
¿Recuerda  algún inconveniente que ha  experimentado en el camino de su residencia a su lugar de trabajo?,5,white,0,17,17,17,0,2,2,2,60.15002000000095,,,,,,,,,,,,,,,60.120136900000944,60.2186056999999,60.15002000000095,378311,001,2024-04-28_12h57.39.364,ArchivoPrueba,2024.1.1,None,2024-04-28 12h57.58.255563 -0500,
¿Recuerda si hay algún lugar u objeto en su camino hacia el trabajo que le llame la atención?,7,blue,0,17,17,17,0,3,3,3,60.25018269999964,,,,,,,,,,,,,,,60.219697700000324,60.33422620000056,60.25018269999964,378311,001,2024-04-28_12h57.39.364,ArchivoPrueba,2024.1.1,None,2024-04-28 12h57.58.255563 -0500,
" ¿Recuerda el recorrido desde la entrada de su lugar de trabajo hasta su oficina, donde realiza sus funciones?",9,yellow,0,17,17,17,0,4,4,4,60.36651929999971,,,,,,,,,,,,,,,60.33531000000039,60.41465390000121,60.36651929999971,378311,001,2024-04-28_12h57.39.364,ArchivoPrueba,2024.1.1,None,2024-04-28 12h57.58.255563 -0500,
¿Recuerda alguna actividad que realice durante los viajes de regreso a casa desde el trabajo para relajarse?,11,orange,0,17,17,17,0,5,5,5,60.449689600000056,,,,,,,,,,,,,,,60.416466599999694,60.53292309999961,60.449689600000056,378311,001,2024-04-28_12h57.39.364,ArchivoPrueba,2024.1.1,None,2024-04-28 12h57.58.255563 -0500,
¿Recuerda el trayecto que realiza desde su casa hasta el lugar donde realiza sus compras?,13,brown,0,17,17,17,0,6,6,6,60.56644679999954,,,,,,,,,,,,,,,60.534012500000244,60.61623379999946,60.56644679999954,378311,001,2024-04-28_12h57.39.364,ArchivoPrueba,2024.1.1,None,2024-04-28 12h57.58.255563 -0500,
¿Recuerda alguna situación divertida o interesante que haya experimentado durante el recorrido hacia el lugar de compras?,15,purple,0,17,17,17,0,7,7,7,60.64944959999957,,,,,,,,,,,,,,,60.617365600000994,60.73119190000034,60.64944959999957,378311,001,2024-04-28_12h57.39.364,ArchivoPrueba,2024.1.1,None,2024-04-28 12h57.58.255563 -0500,
 ¿Recuerda qué es lo primero que ve al llegar al lugar donde realiza sus compras?,17,green,0,17,17,17,0,8,8,8,60.76569180000115,,,,,,,,,,,,,,,60.73274549999951,60.81569979999949,60.76569180000115,378311,001,2024-04-28_12h57.39.364,ArchivoPrueba,2024.1.1,None,2024-04-28 12h57.58.255563 -0500,
¿Recuerda el recorrido desde su residencia hasta el centro de resonancia magnética?,19,red,0,17,17,17,0,9,9,9,60.84896669999944,,,,,,,,,,,,,,,60.81676300000072,60.93215640000017,60.84896669999944,378311,001,2024-04-28_12h57.39.364,ArchivoPrueba,2024.1.1,None,2024-04-28 12h57.58.255563 -0500,
None,21,white,0,17,17,17,0,10,10,10,60.966123100000914,,,,,,,,,,,,,,,60.93330659999992,61.01280570000017,60.966123100000914,378311,001,2024-04-28_12h57.39.364,ArchivoPrueba,2024.1.1,None,2024-04-28 12h57.58.255563 -0500,
None,23,blue,0,17,17,17,0,11,11,11,61.049494299999424,,,,,,,,,,,,,,,61.01465140000073,61.11634539999977,61.049494299999424,378311,001,2024-04-28_12h57.39.364,ArchivoPrueba,2024.1.1,None,2024-04-28 12h57.58.255563 -0500,
None,25,yellow,0,17,17,17,0,12,12,12,61.14905750000071,,,,,,,,,,,,,,,61.1174843000008,61.23419020000074,61.14905750000071,378311,001,2024-04-28_12h57.39.364,ArchivoPrueba,2024.1.1,None,2024-04-28 12h57.58.255563 -0500,
None,27,orange,0,17,17,17,0,13,13,13,61.26542859999972,,,,,,,,,,,,,,,61.23523060000116,61.3162769999999,61.26542859999972,378311,001,2024-04-28_12h57.39.364,ArchivoPrueba,2024.1.1,None,2024-04-28 12h57.58.255563 -0500,
None,29,brown,0,17,17,17,0,14,14,14,61.348984800000835,,,,,,,,,,,,,,,61.31779129999995,61.43333519999942,61.348984800000835,378311,001,2024-04-28_12h57.39.364,ArchivoPrueba,2024.1.1,None,2024-04-28 12h57.58.255563 -0500,
None,31,purple,0,17,17,17,0,15,15,15,61.465560700000424,,,,,,,,,,,,,,,61.43444649999947,61.53230380000059,61.465560700000424,378311,001,2024-04-28_12h57.39.364,ArchivoPrueba,2024.1.1,None,2024-04-28 12h57.58.255563 -0500,
None,33,green,0,17,17,17,0,16,16,16,61.56536869999945,,,,,,,,,,,,,,,61.53342420000081,61.61621750000086,61.56536869999945,378311,001,2024-04-28_12h57.39.364,ArchivoPrueba,2024.1.1,None,2024-04-28 12h57.58.255563 -0500,
None,35,red,0,17,17,17,0,17,17,17,61.649094700000205,,,,,,,,,,,,,,,61.61737220000032,61.73153850000017,61.649094700000205,378311,001,2024-04-28_12h57.39.364,ArchivoPrueba,2024.1.1,None,2024-04-28 12h57.58.255563 -0500,
None,37,white,0,17,17,17,0,18,18,18,61.76515680000011,,,,,,,,,,,,,,,61.73261520000051,61.81554460000007,61.76515680000011,378311,001,2024-04-28_12h57.39.364,ArchivoPrueba,2024.1.1,None,2024-04-28 12h57.58.255563 -0500,
None,39,blue,0,17,17,17,0,19,19,19,61.84888479999972,,,,,,,,,,,,,,,61.81673010000122,61.91884840000057,61.84888479999972,378311,001,2024-04-28_12h57.39.364,ArchivoPrueba,2024.1.1,None,2024-04-28 12h57.58.255563 -0500,
None,35,red,0,17,17,17,,,,,,,,,,,,,,,,,,,,,,,378311,001,2024-04-28_12h57.39.364,ArchivoPrueba,2024.1.1,None,2024-04-28 12h57.58.255563 -0500,
,,,,,,,,,,,61.96462799999972,,,,,,,,,,,,61.920103200000085,61.96462799999972,,,,,,,,,,,,
