PreguntaOff,PreguntaOn,Colors,Prueba.thisRepN,Prueba.thisTrialN,Prueba.thisN,Prueba.thisIndex,RepeticionOn.thisRepN,RepeticionOn.thisTrialN,RepeticionOn.thisN,RepeticionOn.thisIndex,thisRow.t,notes,introducción_3.started,introducción.started,mouse.started,introducción_3.stopped,mouse.x,mouse.y,mouse.leftButton,mouse.midButton,mouse.rightButton,mouse.time,Off.started,CondicionOff.started,Off.stopped,On.started,CondicionOn.started,On.stopped,participant,session,date,expName,psychopyVersion,frameRate,expStart,
,,,,,,,,,,,,,0.051448700000037206,0.076524199999767,0.05091299999912735,1.3608438999999635,[-0.15755208333333334],[0.1640625],[1],[0],[0],[1.3078107000001182],,,,,,,513424,001,2024-04-28_12h49.16.213,ArchivoPrueba,2024.1.1,None,2024-04-28 12h49.29.294863 -0500,
¿Recuerda el recorrido que realiza desde su cama hasta la cocina de su residencia?,1,green,0,0,0,0,0,0,0,0,2.4577368999998725,,,,,,,,,,,,1.3931097999993654,1.4420802999993612,2.3880848999997397,2.4146566999988863,2.4577368999998725,2.4690950000003795,513424,001,2024-04-28_12h49.16.213,ArchivoPrueba,2024.1.1,None,2024-04-28 12h49.29.294863 -0500,
¿Recuerda el trayecto que hace desde su casa hasta su lugar de trabajo?,3,red,0,0,0,0,0,1,1,1,2.507697200000621,,,,,,,,,,,,,,,2.470021299999644,2.507697200000621,2.585887699999148,513424,001,2024-04-28_12h49.16.213,ArchivoPrueba,2024.1.1,None,2024-04-28 12h49.29.294863 -0500,
¿Recuerda  algún inconveniente que ha  experimentado en el camino de su residencia a su lugar de trabajo?,5,white,0,0,0,0,0,2,2,2,2.6243928000003507,,,,,,,,,,,,,,,2.5868042999991303,2.6243928000003507,2.668630899999698,513424,001,2024-04-28_12h49.16.213,ArchivoPrueba,2024.1.1,None,2024-04-28 12h49.29.294863 -0500,
¿Recuerda si hay algún lugar u objeto en su camino hacia el trabajo que le llame la atención?,7,blue,0,0,0,0,0,3,3,3,2.707458400000178,,,,,,,,,,,,,,,2.669764700000087,2.707458400000178,2.786582400000043,513424,001,2024-04-28_12h49.16.213,ArchivoPrueba,2024.1.1,None,2024-04-28 12h49.29.294863 -0500,
" ¿Recuerda el recorrido desde la entrada de su lugar de trabajo hasta su oficina, donde realiza sus funciones?",9,yellow,0,0,0,0,0,4,4,4,2.8240671000003204,,,,,,,,,,,,,,,2.7877800000005664,2.8240671000003204,2.870306900000287,513424,001,2024-04-28_12h49.16.213,ArchivoPrueba,2024.1.1,None,2024-04-28 12h49.29.294863 -0500,
¿Recuerda alguna actividad que realice durante los viajes de regreso a casa desde el trabajo para relajarse?,11,orange,0,0,0,0,0,5,5,5,2.8924772999998822,,,,,,,,,,,,,,,2.871295299999474,2.8924772999998822,2.9682978999990155,513424,001,2024-04-28_12h49.16.213,ArchivoPrueba,2024.1.1,None,2024-04-28 12h49.29.294863 -0500,
¿Recuerda el trayecto que realiza desde su casa hasta el lugar donde realiza sus compras?,13,brown,0,0,0,0,0,6,6,6,2.9920127999994293,,,,,,,,,,,,,,,2.969206199999462,2.9920127999994293,3.0737017999999807,513424,001,2024-04-28_12h49.16.213,ArchivoPrueba,2024.1.1,None,2024-04-28 12h49.29.294863 -0500,
¿Recuerda alguna situación divertida o interesante que haya experimentado durante el recorrido hacia el lugar de compras?,15,purple,0,0,0,0,0,7,7,7,3.1091039999992063,,,,,,,,,,,,,,,3.0749266000002535,3.1091039999992063,3.186709999999948,513424,001,2024-04-28_12h49.16.213,ArchivoPrueba,2024.1.1,None,2024-04-28 12h49.29.294863 -0500,
 ¿Recuerda qué es lo primero que ve al llegar al lugar donde realiza sus compras?,17,green,0,0,0,0,0,8,8,8,3.208802699999069,,,,,,,,,,,,,,,3.1883311000001413,3.208802699999069,3.2852351999990788,513424,001,2024-04-28_12h49.16.213,ArchivoPrueba,2024.1.1,None,2024-04-28 12h49.29.294863 -0500,
¿Recuerda el recorrido desde su residencia hasta el centro de resonancia magnética?,19,red,0,0,0,0,0,9,9,9,3.3086523999991186,,,,,,,,,,,,,,,3.286611499999708,3.3086523999991186,3.386447599999883,513424,001,2024-04-28_12h49.16.213,ArchivoPrueba,2024.1.1,None,2024-04-28 12h49.29.294863 -0500,
None,21,white,0,0,0,0,0,10,10,10,3.423627899999701,,,,,,,,,,,,,,,3.3875115999999252,3.423627899999701,3.472034500000518,513424,001,2024-04-28_12h49.16.213,ArchivoPrueba,2024.1.1,None,2024-04-28 12h49.29.294863 -0500,
None,23,blue,0,0,0,0,0,11,11,11,3.508570399999371,,,,,,,,,,,,,,,3.4731603000000177,3.508570399999371,3.5862221000006684,513424,001,2024-04-28_12h49.16.213,ArchivoPrueba,2024.1.1,None,2024-04-28 12h49.29.294863 -0500,
None,25,yellow,0,0,0,0,0,12,12,12,3.6083727999994153,,,,,,,,,,,,,,,3.587697599999956,3.6083727999994153,3.6859347999998135,513424,001,2024-04-28_12h49.16.213,ArchivoPrueba,2024.1.1,None,2024-04-28 12h49.29.294863 -0500,
None,27,orange,0,0,0,0,0,13,13,13,3.708276299999852,,,,,,,,,,,,,,,3.6868506999999227,3.708276299999852,3.789015299998937,513424,001,2024-04-28_12h49.16.213,ArchivoPrueba,2024.1.1,None,2024-04-28 12h49.29.294863 -0500,
None,29,brown,0,0,0,0,0,14,14,14,3.8249006000005465,,,,,,,,,,,,,,,3.790065400000458,3.8249006000005465,3.8744680999989214,513424,001,2024-04-28_12h49.16.213,ArchivoPrueba,2024.1.1,None,2024-04-28 12h49.29.294863 -0500,
None,31,purple,0,0,0,0,0,15,15,15,3.9082622999994783,,,,,,,,,,,,,,,3.87656909999896,3.9082622999994783,3.9907757000000856,513424,001,2024-04-28_12h49.16.213,ArchivoPrueba,2024.1.1,None,2024-04-28 12h49.29.294863 -0500,
None,33,green,0,0,0,0,0,16,16,16,4.024793200000204,,,,,,,,,,,,,,,3.9917741999997816,4.024793200000204,4.071534200000315,513424,001,2024-04-28_12h49.16.213,ArchivoPrueba,2024.1.1,None,2024-04-28 12h49.29.294863 -0500,
None,35,red,0,0,0,0,0,17,17,17,4.10798319999958,,,,,,,,,,,,,,,4.073306199999934,4.10798319999958,4.188610400000471,513424,001,2024-04-28_12h49.16.213,ArchivoPrueba,2024.1.1,None,2024-04-28 12h49.29.294863 -0500,
None,37,white,0,0,0,0,0,18,18,18,4.224587599999722,,,,,,,,,,,,,,,4.189810699999725,4.224587599999722,4.275019999999131,513424,001,2024-04-28_12h49.16.213,ArchivoPrueba,2024.1.1,None,2024-04-28 12h49.29.294863 -0500,
None,39,blue,0,0,0,0,0,19,19,19,4.30798539999887,,,,,,,,,,,,,,,4.275928799999747,4.30798539999887,4.387232799999765,513424,001,2024-04-28_12h49.16.213,ArchivoPrueba,2024.1.1,None,2024-04-28 12h49.29.294863 -0500,
¿Recuerda el recorrido que realiza desde su cama hasta la cocina de su residencia?,1,green,0,0,0,0,,,,,,,,,,,,,,,,,,,,,,,513424,001,2024-04-28_12h49.16.213,ArchivoPrueba,2024.1.1,None,2024-04-28 12h49.29.294863 -0500,
¿Recuerda el recorrido que realiza desde su cama hasta la cocina de su residencia?,1,green,0,1,1,1,0,0,0,0,5.440413799999078,,,,,,,,,,,,4.388705600000321,4.439715399999841,5.387192199999845,5.419180499999129,5.440413799999078,5.490211599999384,513424,001,2024-04-28_12h49.16.213,ArchivoPrueba,2024.1.1,None,2024-04-28 12h49.29.294863 -0500,
¿Recuerda el trayecto que hace desde su casa hasta su lugar de trabajo?,3,red,0,1,1,1,0,1,1,1,5.523569599999973,,,,,,,,,,,,,,,5.491255900000397,5.523569599999973,5.569997000000512,513424,001,2024-04-28_12h49.16.213,ArchivoPrueba,2024.1.1,None,2024-04-28 12h49.29.294863 -0500,
¿Recuerda  algún inconveniente que ha  experimentado en el camino de su residencia a su lugar de trabajo?,5,white,0,1,1,1,0,2,2,2,5.606922200000554,,,,,,,,,,,,,,,5.571376399999281,5.606922200000554,5.6846196000005875,513424,001,2024-04-28_12h49.16.213,ArchivoPrueba,2024.1.1,None,2024-04-28 12h49.29.294863 -0500,
¿Recuerda si hay algún lugar u objeto en su camino hacia el trabajo que le llame la atención?,7,blue,0,1,1,1,0,3,3,3,5.723454400000264,,,,,,,,,,,,,,,5.6856158999999025,5.723454400000264,5.770435999998881,513424,001,2024-04-28_12h49.16.213,ArchivoPrueba,2024.1.1,None,2024-04-28 12h49.29.294863 -0500,
" ¿Recuerda el recorrido desde la entrada de su lugar de trabajo hasta su oficina, donde realiza sus funciones?",9,yellow,0,1,1,1,0,4,4,4,5.8066462999995565,,,,,,,,,,,,,,,5.771567599998889,5.8066462999995565,5.887430799999493,513424,001,2024-04-28_12h49.16.213,ArchivoPrueba,2024.1.1,None,2024-04-28 12h49.29.294863 -0500,
¿Recuerda alguna actividad que realice durante los viajes de regreso a casa desde el trabajo para relajarse?,11,orange,0,1,1,1,0,5,5,5,5.923909199998889,,,,,,,,,,,,,,,5.888655900000231,5.923909199998889,5.970829199999571,513424,001,2024-04-28_12h49.16.213,ArchivoPrueba,2024.1.1,None,2024-04-28 12h49.29.294863 -0500,
¿Recuerda el trayecto que realiza desde su casa hasta el lugar donde realiza sus compras?,13,brown,0,1,1,1,0,6,6,6,6.006485599998996,,,,,,,,,,,,,,,5.971910799999023,6.006485599998996,6.084983299999294,513424,001,2024-04-28_12h49.16.213,ArchivoPrueba,2024.1.1,None,2024-04-28 12h49.29.294863 -0500,
¿Recuerda alguna situación divertida o interesante que haya experimentado durante el recorrido hacia el lugar de compras?,15,purple,0,1,1,1,0,7,7,7,6.123011300000144,,,,,,,,,,,,,,,6.086384899999757,6.123011300000144,6.1674468999990495,513424,001,2024-04-28_12h49.16.213,ArchivoPrueba,2024.1.1,None,2024-04-28 12h49.29.294863 -0500,
 ¿Recuerda qué es lo primero que ve al llegar al lugar donde realiza sus compras?,17,green,0,1,1,1,0,8,8,8,6.20628620000025,,,,,,,,,,,,,,,6.168385799999669,6.20628620000025,6.292505899999014,513424,001,2024-04-28_12h49.16.213,ArchivoPrueba,2024.1.1,None,2024-04-28 12h49.29.294863 -0500,
¿Recuerda el recorrido desde su residencia hasta el centro de resonancia magnética?,19,red,0,1,1,1,0,9,9,9,6.323533200000384,,,,,,,,,,,,,,,6.294390099999873,6.323533200000384,6.369514399999389,513424,001,2024-04-28_12h49.16.213,ArchivoPrueba,2024.1.1,None,2024-04-28 12h49.29.294863 -0500,
None,21,white,0,1,1,1,0,10,10,10,6.406099499999982,,,,,,,,,,,,,,,6.370761799998945,6.406099499999982,6.4869438000005175,513424,001,2024-04-28_12h49.16.213,ArchivoPrueba,2024.1.1,None,2024-04-28 12h49.29.294863 -0500,
None,23,blue,0,1,1,1,0,11,11,11,6.522635600000285,,,,,,,,,,,,,,,6.488031700000647,6.522635600000285,6.569561399999657,513424,001,2024-04-28_12h49.16.213,ArchivoPrueba,2024.1.1,None,2024-04-28 12h49.29.294863 -0500,
None,25,yellow,0,1,1,1,0,12,12,12,6.606035499999052,,,,,,,,,,,,,,,6.570750599999883,6.606035499999052,6.686669599999732,513424,001,2024-04-28_12h49.16.213,ArchivoPrueba,2024.1.1,None,2024-04-28 12h49.29.294863 -0500,
None,27,orange,0,1,1,1,0,13,13,13,6.722476400000232,,,,,,,,,,,,,,,6.6876979999997275,6.722476400000232,6.769086500000412,513424,001,2024-04-28_12h49.16.213,ArchivoPrueba,2024.1.1,None,2024-04-28 12h49.29.294863 -0500,
None,29,brown,0,1,1,1,0,14,14,14,6.805769099999452,,,,,,,,,,,,,,,6.770380300000397,6.805769099999452,6.886760699999286,513424,001,2024-04-28_12h49.16.213,ArchivoPrueba,2024.1.1,None,2024-04-28 12h49.29.294863 -0500,
None,31,purple,0,1,1,1,0,15,15,15,6.922753700000612,,,,,,,,,,,,,,,6.887865999999121,6.922753700000612,6.969117799999367,513424,001,2024-04-28_12h49.16.213,ArchivoPrueba,2024.1.1,None,2024-04-28 12h49.29.294863 -0500,
None,33,green,0,1,1,1,0,16,16,16,7.005821099999594,,,,,,,,,,,,,,,6.970289700000649,7.005821099999594,7.0864535000000615,513424,001,2024-04-28_12h49.16.213,ArchivoPrueba,2024.1.1,None,2024-04-28 12h49.29.294863 -0500,
None,35,red,0,1,1,1,0,17,17,17,7.122127499998896,,,,,,,,,,,,,,,7.087561799999094,7.122127499998896,7.169821499999671,513424,001,2024-04-28_12h49.16.213,ArchivoPrueba,2024.1.1,None,2024-04-28 12h49.29.294863 -0500,
None,37,white,0,1,1,1,0,18,18,18,7.205747099998916,,,,,,,,,,,,,,,7.170890999999756,7.205747099998916,7.2851212000005034,513424,001,2024-04-28_12h49.16.213,ArchivoPrueba,2024.1.1,None,2024-04-28 12h49.29.294863 -0500,
None,39,blue,0,1,1,1,0,19,19,19,7.321913300000233,,,,,,,,,,,,,,,7.2870452999995905,7.321913300000233,7.3703490999996575,513424,001,2024-04-28_12h49.16.213,ArchivoPrueba,2024.1.1,None,2024-04-28 12h49.29.294863 -0500,
¿Recuerda el trayecto que hace desde su casa hasta su lugar de trabajo?,3,red,0,1,1,1,,,,,,,,,,,,,,,,,,,,,,,513424,001,2024-04-28_12h49.16.213,ArchivoPrueba,2024.1.1,None,2024-04-28 12h49.29.294863 -0500,
¿Recuerda el recorrido que realiza desde su cama hasta la cocina de su residencia?,1,green,0,2,2,2,0,0,0,0,8.454324599999381,,,,,,,,,,,,7.371529500000179,7.437220300000263,8.385659300000043,8.418768600000476,8.454324599999381,8.468941600000107,513424,001,2024-04-28_12h49.16.213,ArchivoPrueba,2024.1.1,None,2024-04-28 12h49.29.294863 -0500,
¿Recuerda el trayecto que hace desde su casa hasta su lugar de trabajo?,3,red,0,2,2,2,0,1,1,1,8.504345100000137,,,,,,,,,,,,,,,8.47027960000014,8.504345100000137,8.585177799999656,513424,001,2024-04-28_12h49.16.213,ArchivoPrueba,2024.1.1,None,2024-04-28 12h49.29.294863 -0500,
¿Recuerda  algún inconveniente que ha  experimentado en el camino de su residencia a su lugar de trabajo?,5,white,0,2,2,2,0,2,2,2,8.62132229999952,,,,,,,,,,,,,,,8.586481399999684,8.62132229999952,8.668410799999037,513424,001,2024-04-28_12h49.16.213,ArchivoPrueba,2024.1.1,None,2024-04-28 12h49.29.294863 -0500,
¿Recuerda si hay algún lugar u objeto en su camino hacia el trabajo que le llame la atención?,7,blue,0,2,2,2,0,3,3,3,8.704236499999752,,,,,,,,,,,,,,,8.669515600000523,8.704236499999752,8.785325799999555,513424,001,2024-04-28_12h49.16.213,ArchivoPrueba,2024.1.1,None,2024-04-28 12h49.29.294863 -0500,
" ¿Recuerda el recorrido desde la entrada de su lugar de trabajo hasta su oficina, donde realiza sus funciones?",9,yellow,0,2,2,2,0,4,4,4,8.820775899999717,,,,,,,,,,,,,,,8.786277100000007,8.820775899999717,8.867783600000621,513424,001,2024-04-28_12h49.16.213,ArchivoPrueba,2024.1.1,None,2024-04-28 12h49.29.294863 -0500,
¿Recuerda alguna actividad que realice durante los viajes de regreso a casa desde el trabajo para relajarse?,11,orange,0,2,2,2,0,5,5,5,8.904194200000347,,,,,,,,,,,,,,,8.868902199999866,8.904194200000347,8.984672399999909,513424,001,2024-04-28_12h49.16.213,ArchivoPrueba,2024.1.1,None,2024-04-28 12h49.29.294863 -0500,
¿Recuerda el trayecto que realiza desde su casa hasta el lugar donde realiza sus compras?,13,brown,0,2,2,2,0,6,6,6,9.020478000000367,,,,,,,,,,,,,,,8.985743999999613,9.020478000000367,9.068133400000079,513424,001,2024-04-28_12h49.16.213,ArchivoPrueba,2024.1.1,None,2024-04-28 12h49.29.294863 -0500,
¿Recuerda alguna situación divertida o interesante que haya experimentado durante el recorrido hacia el lugar de compras?,15,purple,0,2,2,2,0,7,7,7,9.104122400000051,,,,,,,,,,,,,,,9.069338799999969,9.104122400000051,9.185177100000146,513424,001,2024-04-28_12h49.16.213,ArchivoPrueba,2024.1.1,None,2024-04-28 12h49.29.294863 -0500,
 ¿Recuerda qué es lo primero que ve al llegar al lugar donde realiza sus compras?,17,green,0,2,2,2,0,8,8,8,9.220348200000444,,,,,,,,,,,,,,,9.186089299999367,9.220348200000444,9.27206649999971,513424,001,2024-04-28_12h49.16.213,ArchivoPrueba,2024.1.1,None,2024-04-28 12h49.29.294863 -0500,
¿Recuerda el recorrido desde su residencia hasta el centro de resonancia magnética?,19,red,0,2,2,2,0,9,9,9,9.303620700000465,,,,,,,,,,,,,,,9.273309399999562,9.303620700000465,9.384501700000328,513424,001,2024-04-28_12h49.16.213,ArchivoPrueba,2024.1.1,None,2024-04-28 12h49.29.294863 -0500,
None,21,white,0,2,2,2,0,10,10,10,9.420271900000444,,,,,,,,,,,,,,,9.385657099999662,9.420271900000444,9.469441899998856,513424,001,2024-04-28_12h49.16.213,ArchivoPrueba,2024.1.1,None,2024-04-28 12h49.29.294863 -0500,
None,23,blue,0,2,2,2,0,11,11,11,9.503416399998969,,,,,,,,,,,,,,,9.470468699999401,9.503416399998969,9.581255099999908,513424,001,2024-04-28_12h49.16.213,ArchivoPrueba,2024.1.1,None,2024-04-28 12h49.29.294863 -0500,
None,25,yellow,0,2,2,2,0,12,12,12,9.620339699999022,,,,,,,,,,,,,,,9.582686399999147,9.620339699999022,9.684914800000115,513424,001,2024-04-28_12h49.16.213,ArchivoPrueba,2024.1.1,None,2024-04-28 12h49.29.294863 -0500,
None,27,orange,0,2,2,2,0,13,13,13,9.719989999999598,,,,,,,,,,,,,,,9.685899500000232,9.719989999999598,9.76623219999965,513424,001,2024-04-28_12h49.16.213,ArchivoPrueba,2024.1.1,None,2024-04-28 12h49.29.294863 -0500,
None,29,brown,0,2,2,2,0,14,14,14,9.803270000000339,,,,,,,,,,,,,,,9.767553699999553,9.803270000000339,9.883915700000216,513424,001,2024-04-28_12h49.16.213,ArchivoPrueba,2024.1.1,None,2024-04-28 12h49.29.294863 -0500,
None,31,purple,0,2,2,2,0,15,15,15,9.920219999999972,,,,,,,,,,,,,,,9.885201799999777,9.920219999999972,9.967324600000211,513424,001,2024-04-28_12h49.16.213,ArchivoPrueba,2024.1.1,None,2024-04-28 12h49.29.294863 -0500,
None,33,green,0,2,2,2,0,16,16,16,10.00310890000037,,,,,,,,,,,,,,,9.968395100000635,10.00310890000037,10.083033400000204,513424,001,2024-04-28_12h49.16.213,ArchivoPrueba,2024.1.1,None,2024-04-28 12h49.29.294863 -0500,
None,35,red,0,2,2,2,0,17,17,17,10.119489000000613,,,,,,,,,,,,,,,10.08450239999911,10.119489000000613,10.167022199999337,513424,001,2024-04-28_12h49.16.213,ArchivoPrueba,2024.1.1,None,2024-04-28 12h49.29.294863 -0500,
None,37,white,0,2,2,2,0,18,18,18,10.203089399999953,,,,,,,,,,,,,,,10.168081199999506,10.203089399999953,10.28611439999986,513424,001,2024-04-28_12h49.16.213,ArchivoPrueba,2024.1.1,None,2024-04-28 12h49.29.294863 -0500,
None,39,blue,0,2,2,2,0,19,19,19,10.319558799999868,,,,,,,,,,,,,,,10.287381699999969,10.319558799999868,10.363583399999698,513424,001,2024-04-28_12h49.16.213,ArchivoPrueba,2024.1.1,None,2024-04-28 12h49.29.294863 -0500,
¿Recuerda  algún inconveniente que ha  experimentado en el camino de su residencia a su lugar de trabajo?,5,white,0,2,2,2,,,,,,,,,,,,,,,,,,,,,,,513424,001,2024-04-28_12h49.16.213,ArchivoPrueba,2024.1.1,None,2024-04-28 12h49.29.294863 -0500,
¿Recuerda el recorrido que realiza desde su cama hasta la cocina de su residencia?,1,green,0,3,3,3,0,0,0,0,11.435100200000306,,,,,,,,,,,,10.36533210000016,10.418269699999655,11.365632499999265,11.398961700000655,11.435100200000306,11.481880699999238,513424,001,2024-04-28_12h49.16.213,ArchivoPrueba,2024.1.1,None,2024-04-28 12h49.29.294863 -0500,
¿Recuerda el trayecto que hace desde su casa hasta su lugar de trabajo?,3,red,0,3,3,3,0,1,1,1,11.518423999999868,,,,,,,,,,,,,,,11.48306489999959,11.518423999999868,11.566050800000085,513424,001,2024-04-28_12h49.16.213,ArchivoPrueba,2024.1.1,None,2024-04-28 12h49.29.294863 -0500,
¿Recuerda  algún inconveniente que ha  experimentado en el camino de su residencia a su lugar de trabajo?,5,white,0,3,3,3,0,2,2,2,11.601861900000586,,,,,,,,,,,,,,,11.567080499999065,11.601861900000586,11.680556699999215,513424,001,2024-04-28_12h49.16.213,ArchivoPrueba,2024.1.1,None,2024-04-28 12h49.29.294863 -0500,
¿Recuerda si hay algún lugar u objeto en su camino hacia el trabajo que le llame la atención?,7,blue,0,3,3,3,0,3,3,3,11.718158399999083,,,,,,,,,,,,,,,11.682382099999813,11.718158399999083,11.762304699999731,513424,001,2024-04-28_12h49.16.213,ArchivoPrueba,2024.1.1,None,2024-04-28 12h49.29.294863 -0500,
" ¿Recuerda el recorrido desde la entrada de su lugar de trabajo hasta su oficina, donde realiza sus funciones?",9,yellow,0,3,3,3,0,4,4,4,11.80126779999955,,,,,,,,,,,,,,,11.763434299999062,11.80126779999955,11.881561500000316,513424,001,2024-04-28_12h49.16.213,ArchivoPrueba,2024.1.1,None,2024-04-28 12h49.29.294863 -0500,
¿Recuerda alguna actividad que realice durante los viajes de regreso a casa desde el trabajo para relajarse?,11,orange,0,3,3,3,0,5,5,5,11.917944999999236,,,,,,,,,,,,,,,11.882797299998856,11.917944999999236,11.96361479999905,513424,001,2024-04-28_12h49.16.213,ArchivoPrueba,2024.1.1,None,2024-04-28 12h49.29.294863 -0500,
¿Recuerda el trayecto que realiza desde su casa hasta el lugar donde realiza sus compras?,13,brown,0,3,3,3,0,6,6,6,12.001098900000216,,,,,,,,,,,,,,,11.965336899998874,12.001098900000216,12.081669900000634,513424,001,2024-04-28_12h49.16.213,ArchivoPrueba,2024.1.1,None,2024-04-28 12h49.29.294863 -0500,
¿Recuerda alguna situación divertida o interesante que haya experimentado durante el recorrido hacia el lugar de compras?,15,purple,0,3,3,3,0,7,7,7,12.117817899999864,,,,,,,,,,,,,,,12.082730599999195,12.117817899999864,12.16567810000015,513424,001,2024-04-28_12h49.16.213,ArchivoPrueba,2024.1.1,None,2024-04-28 12h49.29.294863 -0500,
 ¿Recuerda qué es lo primero que ve al llegar al lugar donde realiza sus compras?,17,green,0,3,3,3,0,8,8,8,12.201224799999181,,,,,,,,,,,,,,,12.166768699999011,12.201224799999181,12.279910699999164,513424,001,2024-04-28_12h49.16.213,ArchivoPrueba,2024.1.1,None,2024-04-28 12h49.29.294863 -0500,
¿Recuerda el recorrido desde su residencia hasta el centro de resonancia magnética?,19,red,0,3,3,3,0,9,9,9,12.317548299999544,,,,,,,,,,,,,,,12.281415699999343,12.317548299999544,12.36381959999926,513424,001,2024-04-28_12h49.16.213,ArchivoPrueba,2024.1.1,None,2024-04-28 12h49.29.294863 -0500,
None,21,white,0,3,3,3,0,10,10,10,12.400815499999226,,,,,,,,,,,,,,,12.365315699998973,12.400815499999226,12.480303500000446,513424,001,2024-04-28_12h49.16.213,ArchivoPrueba,2024.1.1,None,2024-04-28 12h49.29.294863 -0500,
None,23,blue,0,3,3,3,0,11,11,11,12.517435899999327,,,,,,,,,,,,,,,12.482467499999984,12.517435899999327,12.56599660000029,513424,001,2024-04-28_12h49.16.213,ArchivoPrueba,2024.1.1,None,2024-04-28 12h49.29.294863 -0500,
None,25,yellow,0,3,3,3,0,12,12,12,12.600974699998915,,,,,,,,,,,,,,,12.567045599998892,12.600974699998915,12.699808999999732,513424,001,2024-04-28_12h49.16.213,ArchivoPrueba,2024.1.1,None,2024-04-28 12h49.29.294863 -0500,
None,27,orange,0,3,3,3,0,13,13,13,12.734195799999725,,,,,,,,,,,,,,,12.700773700000354,12.734195799999725,12.783048600000257,513424,001,2024-04-28_12h49.16.213,ArchivoPrueba,2024.1.1,None,2024-04-28 12h49.29.294863 -0500,
None,29,brown,0,3,3,3,0,14,14,14,12.8174113999994,,,,,,,,,,,,,,,12.784460700000636,12.8174113999994,12.865632999999434,513424,001,2024-04-28_12h49.16.213,ArchivoPrueba,2024.1.1,None,2024-04-28 12h49.29.294863 -0500,
None,31,purple,0,3,3,3,0,15,15,15,12.901139999999941,,,,,,,,,,,,,,,12.866957899999761,12.901139999999941,12.98209769999994,513424,001,2024-04-28_12h49.16.213,ArchivoPrueba,2024.1.1,None,2024-04-28 12h49.29.294863 -0500,
None,33,green,0,3,3,3,0,16,16,16,13.017201200000272,,,,,,,,,,,,,,,12.983251899999232,13.017201200000272,13.066405899999154,513424,001,2024-04-28_12h49.16.213,ArchivoPrueba,2024.1.1,None,2024-04-28 12h49.29.294863 -0500,
None,35,red,0,3,3,3,0,17,17,17,13.100895300000047,,,,,,,,,,,,,,,13.067747400000371,13.100895300000047,13.187679499998922,513424,001,2024-04-28_12h49.16.213,ArchivoPrueba,2024.1.1,None,2024-04-28 12h49.29.294863 -0500,
None,37,white,0,3,3,3,0,18,18,18,13.234571900000446,,,,,,,,,,,,,,,13.189149699999689,13.234571900000446,13.296803600000203,513424,001,2024-04-28_12h49.16.213,ArchivoPrueba,2024.1.1,None,2024-04-28 12h49.29.294863 -0500,
None,39,blue,0,3,3,3,0,19,19,19,13.315596000000369,,,,,,,,,,,,,,,13.297280999999202,13.315596000000369,13.374453200000062,513424,001,2024-04-28_12h49.16.213,ArchivoPrueba,2024.1.1,None,2024-04-28 12h49.29.294863 -0500,
¿Recuerda si hay algún lugar u objeto en su camino hacia el trabajo que le llame la atención?,7,blue,0,3,3,3,,,,,,,,,,,,,,,,,,,,,,,513424,001,2024-04-28_12h49.16.213,ArchivoPrueba,2024.1.1,None,2024-04-28 12h49.29.294863 -0500,
¿Recuerda el recorrido que realiza desde su cama hasta la cocina de su residencia?,1,green,0,4,4,4,0,0,0,0,14.43230129999938,,,,,,,,,,,,13.375873499999216,13.432438800000455,14.381288399999903,14.410733900000196,14.43230129999938,14.479278499999054,513424,001,2024-04-28_12h49.16.213,ArchivoPrueba,2024.1.1,None,2024-04-28 12h49.29.294863 -0500,
¿Recuerda el trayecto que hace desde su casa hasta su lugar de trabajo?,3,red,0,4,4,4,0,1,1,1,14.515674399999625,,,,,,,,,,,,,,,14.480413799999951,14.515674399999625,14.596744099999341,513424,001,2024-04-28_12h49.16.213,ArchivoPrueba,2024.1.1,None,2024-04-28 12h49.29.294863 -0500,
¿Recuerda  algún inconveniente que ha  experimentado en el camino de su residencia a su lugar de trabajo?,5,white,0,4,4,4,0,2,2,2,14.632492799999454,,,,,,,,,,,,,,,14.59792809999999,14.632492799999454,14.67736259999947,513424,001,2024-04-28_12h49.16.213,ArchivoPrueba,2024.1.1,None,2024-04-28 12h49.29.294863 -0500,
¿Recuerda si hay algún lugar u objeto en su camino hacia el trabajo que le llame la atención?,7,blue,0,4,4,4,0,3,3,3,14.715478099999018,,,,,,,,,,,,,,,14.679001500000595,14.715478099999018,14.763524399999369,513424,001,2024-04-28_12h49.16.213,ArchivoPrueba,2024.1.1,None,2024-04-28 12h49.29.294863 -0500,
" ¿Recuerda el recorrido desde la entrada de su lugar de trabajo hasta su oficina, donde realiza sus funciones?",9,yellow,0,4,4,4,0,4,4,4,14.798727299999882,,,,,,,,,,,,,,,14.764551099999153,14.798727299999882,14.879429000000528,513424,001,2024-04-28_12h49.16.213,ArchivoPrueba,2024.1.1,None,2024-04-28 12h49.29.294863 -0500,
¿Recuerda alguna actividad que realice durante los viajes de regreso a casa desde el trabajo para relajarse?,11,orange,0,4,4,4,0,5,5,5,14.915239899999506,,,,,,,,,,,,,,,14.88065319999987,14.915239899999506,14.996151299999838,513424,001,2024-04-28_12h49.16.213,ArchivoPrueba,2024.1.1,None,2024-04-28 12h49.29.294863 -0500,
¿Recuerda el trayecto que realiza desde su casa hasta el lugar donde realiza sus compras?,13,brown,0,4,4,4,0,6,6,6,15.031871499999397,,,,,,,,,,,,,,,14.997241600000052,15.031871499999397,15.079496099999233,513424,001,2024-04-28_12h49.16.213,ArchivoPrueba,2024.1.1,None,2024-04-28 12h49.29.294863 -0500,
¿Recuerda alguna situación divertida o interesante que haya experimentado durante el recorrido hacia el lugar de compras?,15,purple,0,4,4,4,0,7,7,7,15.115196799999467,,,,,,,,,,,,,,,15.080562299999656,15.115196799999467,15.16193530000055,513424,001,2024-04-28_12h49.16.213,ArchivoPrueba,2024.1.1,None,2024-04-28 12h49.29.294863 -0500,
 ¿Recuerda qué es lo primero que ve al llegar al lugar donde realiza sus compras?,17,green,0,4,4,4,0,8,8,8,15.198429300000498,,,,,,,,,,,,,,,15.163053500000387,15.198429300000498,15.282054899998911,513424,001,2024-04-28_12h49.16.213,ArchivoPrueba,2024.1.1,None,2024-04-28 12h49.29.294863 -0500,
¿Recuerda el recorrido desde su residencia hasta el centro de resonancia magnética?,19,red,0,4,4,4,0,9,9,9,15.315190999999686,,,,,,,,,,,,,,,15.283038899999156,15.315190999999686,15.362056099998881,513424,001,2024-04-28_12h49.16.213,ArchivoPrueba,2024.1.1,None,2024-04-28 12h49.29.294863 -0500,
None,21,white,0,4,4,4,0,10,10,10,15.3983060999999,,,,,,,,,,,,,,,15.363140399998883,15.3983060999999,15.479624999999942,513424,001,2024-04-28_12h49.16.213,ArchivoPrueba,2024.1.1,None,2024-04-28 12h49.29.294863 -0500,
None,23,blue,0,4,4,4,0,11,11,11,15.514905399999407,,,,,,,,,,,,,,,15.480604299998959,15.514905399999407,15.56182869999975,513424,001,2024-04-28_12h49.16.213,ArchivoPrueba,2024.1.1,None,2024-04-28 12h49.29.294863 -0500,
None,25,yellow,0,4,4,4,0,12,12,12,15.598407100000259,,,,,,,,,,,,,,,15.563061499999094,15.598407100000259,15.678013499998997,513424,001,2024-04-28_12h49.16.213,ArchivoPrueba,2024.1.1,None,2024-04-28 12h49.29.294863 -0500,
None,27,orange,0,4,4,4,0,13,13,13,15.714835099999618,,,,,,,,,,,,,,,15.67937019999954,15.714835099999618,15.762033599999995,513424,001,2024-04-28_12h49.16.213,ArchivoPrueba,2024.1.1,None,2024-04-28 12h49.29.294863 -0500,
None,29,brown,0,4,4,4,0,14,14,14,15.798003899999458,,,,,,,,,,,,,,,15.763085299999148,15.798003899999458,15.878307799999675,513424,001,2024-04-28_12h49.16.213,ArchivoPrueba,2024.1.1,None,2024-04-28 12h49.29.294863 -0500,
None,31,purple,0,4,4,4,0,15,15,15,15.914541099999042,,,,,,,,,,,,,,,15.879456499998923,15.914541099999042,15.961474499999895,513424,001,2024-04-28_12h49.16.213,ArchivoPrueba,2024.1.1,None,2024-04-28 12h49.29.294863 -0500,
None,33,green,0,4,4,4,0,16,16,16,15.997836200000165,,,,,,,,,,,,,,,15.962619599999016,15.997836200000165,16.077960200000234,513424,001,2024-04-28_12h49.16.213,ArchivoPrueba,2024.1.1,None,2024-04-28 12h49.29.294863 -0500,
None,35,red,0,4,4,4,0,17,17,17,16.114296699999613,,,,,,,,,,,,,,,16.079117100000076,16.114296699999613,16.161743700000443,513424,001,2024-04-28_12h49.16.213,ArchivoPrueba,2024.1.1,None,2024-04-28 12h49.29.294863 -0500,
None,37,white,0,4,4,4,0,18,18,18,16.19746269999996,,,,,,,,,,,,,,,16.16296229999898,16.19746269999996,16.277904399999898,513424,001,2024-04-28_12h49.16.213,ArchivoPrueba,2024.1.1,None,2024-04-28 12h49.29.294863 -0500,
None,39,blue,0,4,4,4,0,19,19,19,16.31416849999914,,,,,,,,,,,,,,,16.279329699998925,16.31416849999914,16.394088699998974,513424,001,2024-04-28_12h49.16.213,ArchivoPrueba,2024.1.1,None,2024-04-28 12h49.29.294863 -0500,
" ¿Recuerda el recorrido desde la entrada de su lugar de trabajo hasta su oficina, donde realiza sus funciones?",9,yellow,0,4,4,4,,,,,,,,,,,,,,,,,,,,,,,513424,001,2024-04-28_12h49.16.213,ArchivoPrueba,2024.1.1,None,2024-04-28 12h49.29.294863 -0500,
¿Recuerda el recorrido que realiza desde su cama hasta la cocina de su residencia?,1,green,0,5,5,5,0,0,0,0,17.462980500000413,,,,,,,,,,,,16.396219899999778,16.447628100000657,17.39336220000041,17.42454379999981,17.462980500000413,17.477391099999295,513424,001,2024-04-28_12h49.16.213,ArchivoPrueba,2024.1.1,None,2024-04-28 12h49.29.294863 -0500,
¿Recuerda el trayecto que hace desde su casa hasta su lugar de trabajo?,3,red,0,5,5,5,0,1,1,1,17.513025500000367,,,,,,,,,,,,,,,17.478604100000666,17.513025500000367,17.56180239999958,513424,001,2024-04-28_12h49.16.213,ArchivoPrueba,2024.1.1,None,2024-04-28 12h49.29.294863 -0500,
¿Recuerda  algún inconveniente que ha  experimentado en el camino de su residencia a su lugar de trabajo?,5,white,0,5,5,5,0,2,2,2,17.596398199999385,,,,,,,,,,,,,,,17.56285829999979,17.596398199999385,17.704065300000366,513424,001,2024-04-28_12h49.16.213,ArchivoPrueba,2024.1.1,None,2024-04-28 12h49.29.294863 -0500,
¿Recuerda si hay algún lugar u objeto en su camino hacia el trabajo que le llame la atención?,7,blue,0,5,5,5,0,3,3,3,17.74630740000066,,,,,,,,,,,,,,,17.705366099999083,17.74630740000066,17.763984600000185,513424,001,2024-04-28_12h49.16.213,ArchivoPrueba,2024.1.1,None,2024-04-28 12h49.29.294863 -0500,
" ¿Recuerda el recorrido desde la entrada de su lugar de trabajo hasta su oficina, donde realiza sus funciones?",9,yellow,0,5,5,5,0,4,4,4,17.79522779999934,,,,,,,,,,,,,,,17.764610500000344,17.79522779999934,17.87242949999927,513424,001,2024-04-28_12h49.16.213,ArchivoPrueba,2024.1.1,None,2024-04-28 12h49.29.294863 -0500,
¿Recuerda alguna actividad que realice durante los viajes de regreso a casa desde el trabajo para relajarse?,11,orange,0,5,5,5,0,5,5,5,17.91354390000015,,,,,,,,,,,,,,,17.873572000000422,17.91354390000015,17.985626100000445,513424,001,2024-04-28_12h49.16.213,ArchivoPrueba,2024.1.1,None,2024-04-28 12h49.29.294863 -0500,
¿Recuerda el trayecto que realiza desde su casa hasta el lugar donde realiza sus compras?,13,brown,0,5,5,5,0,6,6,6,18.01221590000023,,,,,,,,,,,,,,,17.986612999999124,18.01221590000023,18.092325300000084,513424,001,2024-04-28_12h49.16.213,ArchivoPrueba,2024.1.1,None,2024-04-28 12h49.29.294863 -0500,
¿Recuerda alguna situación divertida o interesante que haya experimentado durante el recorrido hacia el lugar de compras?,15,purple,0,5,5,5,0,7,7,7,18.128766100000576,,,,,,,,,,,,,,,18.093424900000173,18.128766100000576,18.16776209999989,513424,001,2024-04-28_12h49.16.213,ArchivoPrueba,2024.1.1,None,2024-04-28 12h49.29.294863 -0500,
 ¿Recuerda qué es lo primero que ve al llegar al lugar donde realiza sus compras?,17,green,0,5,5,5,0,8,8,8,18.194718400000056,,,,,,,,,,,,,,,18.168259699999908,18.194718400000056,18.263640099999975,513424,001,2024-04-28_12h49.16.213,ArchivoPrueba,2024.1.1,None,2024-04-28 12h49.29.294863 -0500,
¿Recuerda el recorrido desde su residencia hasta el centro de resonancia magnética?,19,red,0,5,5,5,0,9,9,9,18.295689200000197,,,,,,,,,,,,,,,18.26517109999986,18.295689200000197,18.3760841000003,513424,001,2024-04-28_12h49.16.213,ArchivoPrueba,2024.1.1,None,2024-04-28 12h49.29.294863 -0500,
None,21,white,0,5,5,5,0,10,10,10,18.412425200000143,,,,,,,,,,,,,,,18.377287799999976,18.412425200000143,18.492597000000387,513424,001,2024-04-28_12h49.16.213,ArchivoPrueba,2024.1.1,None,2024-04-28 12h49.29.294863 -0500,
None,23,blue,0,5,5,5,0,11,11,11,18.529000200000155,,,,,,,,,,,,,,,18.493792699999176,18.529000200000155,18.57328140000027,513424,001,2024-04-28_12h49.16.213,ArchivoPrueba,2024.1.1,None,2024-04-28 12h49.29.294863 -0500,
None,25,yellow,0,5,5,5,0,12,12,12,18.612321200000224,,,,,,,,,,,,,,,18.574289000000135,18.612321200000224,18.691500999999334,513424,001,2024-04-28_12h49.16.213,ArchivoPrueba,2024.1.1,None,2024-04-28 12h49.29.294863 -0500,
None,27,orange,0,5,5,5,0,13,13,13,18.728752600000007,,,,,,,,,,,,,,,18.692918000000645,18.728752600000007,18.80367389999992,513424,001,2024-04-28_12h49.16.213,ArchivoPrueba,2024.1.1,None,2024-04-28 12h49.29.294863 -0500,
None,29,brown,0,5,5,5,0,14,14,14,18.845250899999883,,,,,,,,,,,,,,,18.80536729999949,18.845250899999883,18.890342200000305,513424,001,2024-04-28_12h49.16.213,ArchivoPrueba,2024.1.1,None,2024-04-28 12h49.29.294863 -0500,
None,31,purple,0,5,5,5,0,15,15,15,18.911458999999013,,,,,,,,,,,,,,,18.89138610000009,18.911458999999013,18.96909129999949,513424,001,2024-04-28_12h49.16.213,ArchivoPrueba,2024.1.1,None,2024-04-28 12h49.29.294863 -0500,
None,33,green,0,5,5,5,0,16,16,16,18.994291599999997,,,,,,,,,,,,,,,18.969614999999976,18.994291599999997,19.09368809999978,513424,001,2024-04-28_12h49.16.213,ArchivoPrueba,2024.1.1,None,2024-04-28 12h49.29.294863 -0500,
None,35,red,0,5,5,5,0,17,17,17,19.1284083999999,,,,,,,,,,,,,,,19.094582300000184,19.1284083999999,19.17931309999949,513424,001,2024-04-28_12h49.16.213,ArchivoPrueba,2024.1.1,None,2024-04-28 12h49.29.294863 -0500,
None,37,white,0,5,5,5,0,18,18,18,19.21190419999948,,,,,,,,,,,,,,,19.180401899999197,19.21190419999948,19.303124500000195,513424,001,2024-04-28_12h49.16.213,ArchivoPrueba,2024.1.1,None,2024-04-28 12h49.29.294863 -0500,
None,39,blue,0,5,5,5,0,19,19,19,19.328243300000395,,,,,,,,,,,,,,,19.30434570000034,19.328243300000395,19.376525699999547,513424,001,2024-04-28_12h49.16.213,ArchivoPrueba,2024.1.1,None,2024-04-28 12h49.29.294863 -0500,
¿Recuerda alguna actividad que realice durante los viajes de regreso a casa desde el trabajo para relajarse?,11,orange,0,5,5,5,,,,,,,,,,,,,,,,,,,,,,,513424,001,2024-04-28_12h49.16.213,ArchivoPrueba,2024.1.1,None,2024-04-28 12h49.29.294863 -0500,
¿Recuerda el recorrido que realiza desde su cama hasta la cocina de su residencia?,1,green,0,6,6,6,0,0,0,0,20.443826999999146,,,,,,,,,,,,19.377730599999268,19.428263199999492,20.374589400000332,20.411627999999837,20.443826999999146,20.491566999999122,513424,001,2024-04-28_12h49.16.213,ArchivoPrueba,2024.1.1,None,2024-04-28 12h49.29.294863 -0500,
¿Recuerda el trayecto que hace desde su casa hasta su lugar de trabajo?,3,red,0,6,6,6,0,1,1,1,20.527115999999296,,,,,,,,,,,,,,,20.492899099999704,20.527115999999296,20.574740099998962,513424,001,2024-04-28_12h49.16.213,ArchivoPrueba,2024.1.1,None,2024-04-28 12h49.29.294863 -0500,
¿Recuerda  algún inconveniente que ha  experimentado en el camino de su residencia a su lugar de trabajo?,5,white,0,6,6,6,0,2,2,2,20.61044790000051,,,,,,,,,,,,,,,20.575731099999757,20.61044790000051,20.691196100000525,513424,001,2024-04-28_12h49.16.213,ArchivoPrueba,2024.1.1,None,2024-04-28 12h49.29.294863 -0500,
¿Recuerda si hay algún lugar u objeto en su camino hacia el trabajo que le llame la atención?,7,blue,0,6,6,6,0,3,3,3,20.72691599999962,,,,,,,,,,,,,,,20.692252599999847,20.72691599999962,20.77478549999978,513424,001,2024-04-28_12h49.16.213,ArchivoPrueba,2024.1.1,None,2024-04-28 12h49.29.294863 -0500,
" ¿Recuerda el recorrido desde la entrada de su lugar de trabajo hasta su oficina, donde realiza sus funciones?",9,yellow,0,6,6,6,0,4,4,4,20.810406000000512,,,,,,,,,,,,,,,20.776322300000174,20.810406000000512,20.89000060000035,513424,001,2024-04-28_12h49.16.213,ArchivoPrueba,2024.1.1,None,2024-04-28 12h49.29.294863 -0500,
¿Recuerda alguna actividad que realice durante los viajes de regreso a casa desde el trabajo para relajarse?,11,orange,0,6,6,6,0,5,5,5,20.92693429999963,,,,,,,,,,,,,,,20.89124830000037,20.92693429999963,20.974164199998995,513424,001,2024-04-28_12h49.16.213,ArchivoPrueba,2024.1.1,None,2024-04-28 12h49.29.294863 -0500,
¿Recuerda el trayecto que realiza desde su casa hasta el lugar donde realiza sus compras?,13,brown,0,6,6,6,0,6,6,6,21.01150559999951,,,,,,,,,,,,,,,20.975347699999475,21.01150559999951,21.09018710000055,513424,001,2024-04-28_12h49.16.213,ArchivoPrueba,2024.1.1,None,2024-04-28 12h49.29.294863 -0500,
¿Recuerda alguna situación divertida o interesante que haya experimentado durante el recorrido hacia el lugar de compras?,15,purple,0,6,6,6,0,7,7,7,21.126729699999487,,,,,,,,,,,,,,,21.091335600000093,21.126729699999487,21.17436909999924,513424,001,2024-04-28_12h49.16.213,ArchivoPrueba,2024.1.1,None,2024-04-28 12h49.29.294863 -0500,
 ¿Recuerda qué es lo primero que ve al llegar al lugar donde realiza sus compras?,17,green,0,6,6,6,0,8,8,8,21.2098821999989,,,,,,,,,,,,,,,21.17565470000045,21.2098821999989,21.290965599999254,513424,001,2024-04-28_12h49.16.213,ArchivoPrueba,2024.1.1,None,2024-04-28 12h49.29.294863 -0500,
¿Recuerda el recorrido desde su residencia hasta el centro de resonancia magnética?,19,red,0,6,6,6,0,9,9,9,21.32629889999953,,,,,,,,,,,,,,,21.29219600000033,21.32629889999953,21.37335229999917,513424,001,2024-04-28_12h49.16.213,ArchivoPrueba,2024.1.1,None,2024-04-28 12h49.29.294863 -0500,
None,21,white,0,6,6,6,0,10,10,10,21.409581300000355,,,,,,,,,,,,,,,21.374623600000632,21.409581300000355,21.48792510000021,513424,001,2024-04-28_12h49.16.213,ArchivoPrueba,2024.1.1,None,2024-04-28 12h49.29.294863 -0500,
None,23,blue,0,6,6,6,0,11,11,11,21.526482899998882,,,,,,,,,,,,,,,21.489330999998856,21.526482899998882,21.57461390000026,513424,001,2024-04-28_12h49.16.213,ArchivoPrueba,2024.1.1,None,2024-04-28 12h49.29.294863 -0500,
None,25,yellow,0,6,6,6,0,12,12,12,21.609573499999897,,,,,,,,,,,,,,,21.57562560000042,21.609573499999897,21.69012329999896,513424,001,2024-04-28_12h49.16.213,ArchivoPrueba,2024.1.1,None,2024-04-28 12h49.29.294863 -0500,
None,27,orange,0,6,6,6,0,13,13,13,21.726053700000193,,,,,,,,,,,,,,,21.691265899999053,21.726053700000193,21.774845199999618,513424,001,2024-04-28_12h49.16.213,ArchivoPrueba,2024.1.1,None,2024-04-28 12h49.29.294863 -0500,
None,29,brown,0,6,6,6,0,14,14,14,21.80939269999908,,,,,,,,,,,,,,,21.776473500000066,21.80939269999908,21.889936999999918,513424,001,2024-04-28_12h49.16.213,ArchivoPrueba,2024.1.1,None,2024-04-28 12h49.29.294863 -0500,
None,31,purple,0,6,6,6,0,15,15,15,21.925901599999634,,,,,,,,,,,,,,,21.891005399998903,21.925901599999634,21.972995300000548,513424,001,2024-04-28_12h49.16.213,ArchivoPrueba,2024.1.1,None,2024-04-28 12h49.29.294863 -0500,
None,33,green,0,6,6,6,0,16,16,16,22.009277900000598,,,,,,,,,,,,,,,21.97429419999935,22.009277900000598,22.089615400000184,513424,001,2024-04-28_12h49.16.213,ArchivoPrueba,2024.1.1,None,2024-04-28 12h49.29.294863 -0500,
None,35,red,0,6,6,6,0,17,17,17,22.125806099998954,,,,,,,,,,,,,,,22.090939300000173,22.125806099998954,22.16961470000024,513424,001,2024-04-28_12h49.16.213,ArchivoPrueba,2024.1.1,None,2024-04-28 12h49.29.294863 -0500,
None,37,white,0,6,6,6,0,18,18,18,22.19259029999921,,,,,,,,,,,,,,,22.170562899998913,22.19259029999921,22.27624990000004,513424,001,2024-04-28_12h49.16.213,ArchivoPrueba,2024.1.1,None,2024-04-28 12h49.29.294863 -0500,
None,39,blue,0,6,6,6,0,19,19,19,22.30907130000014,,,,,,,,,,,,,,,22.2772230999999,22.30907130000014,22.389521400000376,513424,001,2024-04-28_12h49.16.213,ArchivoPrueba,2024.1.1,None,2024-04-28 12h49.29.294863 -0500,
¿Recuerda el trayecto que realiza desde su casa hasta el lugar donde realiza sus compras?,13,brown,0,6,6,6,,,,,,,,,,,,,,,,,,,,,,,513424,001,2024-04-28_12h49.16.213,ArchivoPrueba,2024.1.1,None,2024-04-28 12h49.29.294863 -0500,
¿Recuerda el recorrido que realiza desde su cama hasta la cocina de su residencia?,1,green,0,7,7,7,0,0,0,0,23.441436400000384,,,,,,,,,,,,22.390910500000246,22.442294799999218,23.373400099999344,23.40947159999996,23.441436400000384,23.465662299999167,513424,001,2024-04-28_12h49.16.213,ArchivoPrueba,2024.1.1,None,2024-04-28 12h49.29.294863 -0500,
¿Recuerda el trayecto que hace desde su casa hasta su lugar de trabajo?,3,red,0,7,7,7,0,1,1,1,23.511509599999044,,,,,,,,,,,,,,,23.46689349999906,23.511509599999044,23.584054200000537,513424,001,2024-04-28_12h49.16.213,ArchivoPrueba,2024.1.1,None,2024-04-28 12h49.29.294863 -0500,
¿Recuerda  algún inconveniente que ha  experimentado en el camino de su residencia a su lugar de trabajo?,5,white,0,7,7,7,0,2,2,2,23.62786529999903,,,,,,,,,,,,,,,23.586069599999973,23.62786529999903,23.66890129999956,513424,001,2024-04-28_12h49.16.213,ArchivoPrueba,2024.1.1,None,2024-04-28 12h49.29.294863 -0500,
¿Recuerda si hay algún lugar u objeto en su camino hacia el trabajo que le llame la atención?,7,blue,0,7,7,7,0,3,3,3,23.691983200000323,,,,,,,,,,,,,,,23.66984070000035,23.691983200000323,23.79472700000042,513424,001,2024-04-28_12h49.16.213,ArchivoPrueba,2024.1.1,None,2024-04-28 12h49.29.294863 -0500,
" ¿Recuerda el recorrido desde la entrada de su lugar de trabajo hasta su oficina, donde realiza sus funciones?",9,yellow,0,7,7,7,0,4,4,4,23.827158599999166,,,,,,,,,,,,,,,23.795845700000427,23.827158599999166,23.89484640000046,513424,001,2024-04-28_12h49.16.213,ArchivoPrueba,2024.1.1,None,2024-04-28 12h49.29.294863 -0500,
¿Recuerda alguna actividad que realice durante los viajes de regreso a casa desde el trabajo para relajarse?,11,orange,0,7,7,7,0,5,5,5,23.927183399999194,,,,,,,,,,,,,,,23.895903099999487,23.927183399999194,23.99535189999915,513424,001,2024-04-28_12h49.16.213,ArchivoPrueba,2024.1.1,None,2024-04-28 12h49.29.294863 -0500,
¿Recuerda el trayecto que realiza desde su casa hasta el lugar donde realiza sus compras?,13,brown,0,7,7,7,0,6,6,6,24.027126099999805,,,,,,,,,,,,,,,23.99659260000044,24.027126099999805,24.101452700000664,513424,001,2024-04-28_12h49.16.213,ArchivoPrueba,2024.1.1,None,2024-04-28 12h49.29.294863 -0500,
¿Recuerda alguna situación divertida o interesante que haya experimentado durante el recorrido hacia el lugar de compras?,15,purple,0,7,7,7,0,7,7,7,24.161583600000085,,,,,,,,,,,,,,,24.103144599999723,24.161583600000085,24.18597790000058,513424,001,2024-04-28_12h49.16.213,ArchivoPrueba,2024.1.1,None,2024-04-28 12h49.29.294863 -0500,
 ¿Recuerda qué es lo primero que ve al llegar al lugar donde realiza sus compras?,17,green,0,7,7,7,0,8,8,8,24.270470499999647,,,,,,,,,,,,,,,24.187743099999352,24.270470499999647,24.284953599999426,513424,001,2024-04-28_12h49.16.213,ArchivoPrueba,2024.1.1,None,2024-04-28 12h49.29.294863 -0500,
¿Recuerda el recorrido desde su residencia hasta el centro de resonancia magnética?,19,red,0,7,7,7,0,9,9,9,24.333015099999102,,,,,,,,,,,,,,,24.285893099999157,24.333015099999102,24.36485729999913,513424,001,2024-04-28_12h49.16.213,ArchivoPrueba,2024.1.1,None,2024-04-28 12h49.29.294863 -0500,
None,21,white,0,7,7,7,0,10,10,10,24.39054430000033,,,,,,,,,,,,,,,24.36531019999893,24.39054430000033,24.478460799999084,513424,001,2024-04-28_12h49.16.213,ArchivoPrueba,2024.1.1,None,2024-04-28 12h49.29.294863 -0500,
None,23,blue,0,7,7,7,0,11,11,11,24.507663700000194,,,,,,,,,,,,,,,24.479978199999096,24.507663700000194,24.57883269999911,513424,001,2024-04-28_12h49.16.213,ArchivoPrueba,2024.1.1,None,2024-04-28 12h49.29.294863 -0500,
None,25,yellow,0,7,7,7,0,12,12,12,24.623493699999017,,,,,,,,,,,,,,,24.58095940000021,24.623493699999017,24.686437299998943,513424,001,2024-04-28_12h49.16.213,ArchivoPrueba,2024.1.1,None,2024-04-28 12h49.29.294863 -0500,
None,27,orange,0,7,7,7,0,13,13,13,24.723371099998985,,,,,,,,,,,,,,,24.68773920000058,24.723371099998985,24.76847269999962,513424,001,2024-04-28_12h49.16.213,ArchivoPrueba,2024.1.1,None,2024-04-28 12h49.29.294863 -0500,
None,29,brown,0,7,7,7,0,14,14,14,24.807833400000163,,,,,,,,,,,,,,,24.769592999999077,24.807833400000163,24.872755500000494,513424,001,2024-04-28_12h49.16.213,ArchivoPrueba,2024.1.1,None,2024-04-28 12h49.29.294863 -0500,
None,31,purple,0,7,7,7,0,15,15,15,24.907338699998945,,,,,,,,,,,,,,,24.87394189999941,24.907338699998945,24.989931799998885,513424,001,2024-04-28_12h49.16.213,ArchivoPrueba,2024.1.1,None,2024-04-28 12h49.29.294863 -0500,
None,33,green,0,7,7,7,0,16,16,16,25.024246799999673,,,,,,,,,,,,,,,24.99116049999975,25.024246799999673,25.095209400000385,513424,001,2024-04-28_12h49.16.213,ArchivoPrueba,2024.1.1,None,2024-04-28 12h49.29.294863 -0500,
None,35,red,0,7,7,7,0,17,17,17,25.14021169999978,,,,,,,,,,,,,,,25.096628299999793,25.14021169999978,25.211262400000123,513424,001,2024-04-28_12h49.16.213,ArchivoPrueba,2024.1.1,None,2024-04-28 12h49.29.294863 -0500,
None,37,white,0,7,7,7,0,18,18,18,25.25729390000015,,,,,,,,,,,,,,,25.212610399999903,25.25729390000015,25.28634779999993,513424,001,2024-04-28_12h49.16.213,ArchivoPrueba,2024.1.1,None,2024-04-28 12h49.29.294863 -0500,
None,39,blue,0,7,7,7,0,19,19,19,25.323561600000176,,,,,,,,,,,,,,,25.28850659999989,25.323561600000176,25.396039400000518,513424,001,2024-04-28_12h49.16.213,ArchivoPrueba,2024.1.1,None,2024-04-28 12h49.29.294863 -0500,
¿Recuerda alguna situación divertida o interesante que haya experimentado durante el recorrido hacia el lugar de compras?,15,purple,0,7,7,7,,,,,,,,,,,,,,,,,,,,,,,513424,001,2024-04-28_12h49.16.213,ArchivoPrueba,2024.1.1,None,2024-04-28 12h49.29.294863 -0500,
¿Recuerda el recorrido que realiza desde su cama hasta la cocina de su residencia?,1,green,0,8,8,8,0,0,0,0,26.489089000000604,,,,,,,,,,,,25.397549600000275,25.455454299999474,26.407315700000254,26.44946279999931,26.489089000000604,26.505698299999494,513424,001,2024-04-28_12h49.16.213,ArchivoPrueba,2024.1.1,None,2024-04-28 12h49.29.294863 -0500,
¿Recuerda el trayecto que hace desde su casa hasta su lugar de trabajo?,3,red,0,8,8,8,0,1,1,1,26.538830899999084,,,,,,,,,,,,,,,26.507467800000086,26.538830899999084,26.586965299999065,513424,001,2024-04-28_12h49.16.213,ArchivoPrueba,2024.1.1,None,2024-04-28 12h49.29.294863 -0500,
¿Recuerda  algún inconveniente que ha  experimentado en el camino de su residencia a su lugar de trabajo?,5,white,0,8,8,8,0,2,2,2,26.62267310000061,,,,,,,,,,,,,,,26.588674499998888,26.62267310000061,26.686168700000053,513424,001,2024-04-28_12h49.16.213,ArchivoPrueba,2024.1.1,None,2024-04-28 12h49.29.294863 -0500,
¿Recuerda si hay algún lugar u objeto en su camino hacia el trabajo que le llame la atención?,7,blue,0,8,8,8,0,3,3,3,26.722209399998974,,,,,,,,,,,,,,,26.687897199999497,26.722209399998974,26.79188819999945,513424,001,2024-04-28_12h49.16.213,ArchivoPrueba,2024.1.1,None,2024-04-28 12h49.29.294863 -0500,
" ¿Recuerda el recorrido desde la entrada de su lugar de trabajo hasta su oficina, donde realiza sus funciones?",9,yellow,0,8,8,8,0,4,4,4,26.822215300000607,,,,,,,,,,,,,,,26.793232399999397,26.822215300000607,26.876607899999726,513424,001,2024-04-28_12h49.16.213,ArchivoPrueba,2024.1.1,None,2024-04-28 12h49.29.294863 -0500,
¿Recuerda alguna actividad que realice durante los viajes de regreso a casa desde el trabajo para relajarse?,11,orange,0,8,8,8,0,5,5,5,26.922574500000337,,,,,,,,,,,,,,,26.878070200000366,26.922574500000337,26.993928199999573,513424,001,2024-04-28_12h49.16.213,ArchivoPrueba,2024.1.1,None,2024-04-28 12h49.29.294863 -0500,
¿Recuerda el trayecto que realiza desde su casa hasta el lugar donde realiza sus compras?,13,brown,0,8,8,8,0,6,6,6,27.039455899999666,,,,,,,,,,,,,,,26.995351600000504,27.039455899999666,27.070939900000667,513424,001,2024-04-28_12h49.16.213,ArchivoPrueba,2024.1.1,None,2024-04-28 12h49.29.294863 -0500,
¿Recuerda alguna situación divertida o interesante que haya experimentado durante el recorrido hacia el lugar de compras?,15,purple,0,8,8,8,0,7,7,7,27.128023699999176,,,,,,,,,,,,,,,27.07359770000039,27.128023699999176,27.203441300000122,513424,001,2024-04-28_12h49.16.213,ArchivoPrueba,2024.1.1,None,2024-04-28 12h49.29.294863 -0500,
 ¿Recuerda qué es lo primero que ve al llegar al lugar donde realiza sus compras?,17,green,0,8,8,8,0,8,8,8,27.240914399999383,,,,,,,,,,,,,,,27.205908899999486,27.240914399999383,27.300064799999745,513424,001,2024-04-28_12h49.16.213,ArchivoPrueba,2024.1.1,None,2024-04-28 12h49.29.294863 -0500,
¿Recuerda el recorrido desde su residencia hasta el centro de resonancia magnética?,19,red,0,8,8,8,0,9,9,9,27.337928099999772,,,,,,,,,,,,,,,27.302319000000352,27.337928099999772,27.38556459999927,513424,001,2024-04-28_12h49.16.213,ArchivoPrueba,2024.1.1,None,2024-04-28 12h49.29.294863 -0500,
None,21,white,0,8,8,8,0,10,10,10,27.42157000000043,,,,,,,,,,,,,,,27.387013800000204,27.42157000000043,27.488471999999092,513424,001,2024-04-28_12h49.16.213,ArchivoPrueba,2024.1.1,None,2024-04-28 12h49.29.294863 -0500,
None,23,blue,0,8,8,8,0,11,11,11,27.526664799999708,,,,,,,,,,,,,,,27.489714400000594,27.526664799999708,27.63830169999892,513424,001,2024-04-28_12h49.16.213,ArchivoPrueba,2024.1.1,None,2024-04-28 12h49.29.294863 -0500,
None,25,yellow,0,8,8,8,0,12,12,12,27.69114830000035,,,,,,,,,,,,,,,27.640752799999973,27.69114830000035,27.707335400000375,513424,001,2024-04-28_12h49.16.213,ArchivoPrueba,2024.1.1,None,2024-04-28 12h49.29.294863 -0500,
None,27,orange,0,8,8,8,0,13,13,13,27.740114500000345,,,,,,,,,,,,,,,27.708692000000156,27.740114500000345,27.80558249999922,513424,001,2024-04-28_12h49.16.213,ArchivoPrueba,2024.1.1,None,2024-04-28 12h49.29.294863 -0500,
None,29,brown,0,8,8,8,0,14,14,14,27.83828949999952,,,,,,,,,,,,,,,27.806924000000436,27.83828949999952,27.907222699999693,513424,001,2024-04-28_12h49.16.213,ArchivoPrueba,2024.1.1,None,2024-04-28 12h49.29.294863 -0500,
None,31,purple,0,8,8,8,0,15,15,15,27.938295399999333,,,,,,,,,,,,,,,27.908801600000515,27.938295399999333,28.00081390000014,513424,001,2024-04-28_12h49.16.213,ArchivoPrueba,2024.1.1,None,2024-04-28 12h49.29.294863 -0500,
None,33,green,0,8,8,8,0,16,16,16,28.038158100000146,,,,,,,,,,,,,,,28.002882200000386,28.038158100000146,28.106606199999078,513424,001,2024-04-28_12h49.16.213,ArchivoPrueba,2024.1.1,None,2024-04-28 12h49.29.294863 -0500,
None,35,red,0,8,8,8,0,17,17,17,28.137812699998904,,,,,,,,,,,,,,,28.107888999998977,28.137812699998904,28.190430700000434,513424,001,2024-04-28_12h49.16.213,ArchivoPrueba,2024.1.1,None,2024-04-28 12h49.29.294863 -0500,
None,37,white,0,8,8,8,0,18,18,18,28.22130780000043,,,,,,,,,,,,,,,28.191751099999237,28.22130780000043,28.293355100000554,513424,001,2024-04-28_12h49.16.213,ArchivoPrueba,2024.1.1,None,2024-04-28 12h49.29.294863 -0500,
None,39,blue,0,8,8,8,0,19,19,19,28.337777799999458,,,,,,,,,,,,,,,28.29457530000036,28.337777799999458,28.405440000000453,513424,001,2024-04-28_12h49.16.213,ArchivoPrueba,2024.1.1,None,2024-04-28 12h49.29.294863 -0500,
 ¿Recuerda qué es lo primero que ve al llegar al lugar donde realiza sus compras?,17,green,0,8,8,8,,,,,,,,,,,,,,,,,,,,,,,513424,001,2024-04-28_12h49.16.213,ArchivoPrueba,2024.1.1,None,2024-04-28 12h49.29.294863 -0500,
¿Recuerda el recorrido que realiza desde su cama hasta la cocina de su residencia?,1,green,0,9,9,9,0,0,0,0,29.4517321000003,,,,,,,,,,,,28.406911599999148,28.454355300000316,29.36636449999969,29.425859499999206,29.4517321000003,29.503349000000526,513424,001,2024-04-28_12h49.16.213,ArchivoPrueba,2024.1.1,None,2024-04-28 12h49.29.294863 -0500,
¿Recuerda el trayecto que hace desde su casa hasta su lugar de trabajo?,3,red,0,9,9,9,0,1,1,1,29.536500799998976,,,,,,,,,,,,,,,29.504867699999522,29.536500799998976,29.606235400000514,513424,001,2024-04-28_12h49.16.213,ArchivoPrueba,2024.1.1,None,2024-04-28 12h49.29.294863 -0500,
¿Recuerda  algún inconveniente que ha  experimentado en el camino de su residencia a su lugar de trabajo?,5,white,0,9,9,9,0,2,2,2,29.654238999999507,,,,,,,,,,,,,,,29.607486599999902,29.654238999999507,29.676197700000557,513424,001,2024-04-28_12h49.16.213,ArchivoPrueba,2024.1.1,None,2024-04-28 12h49.29.294863 -0500,
¿Recuerda si hay algún lugar u objeto en su camino hacia el trabajo que le llame la atención?,7,blue,0,9,9,9,0,3,3,3,29.719494699998904,,,,,,,,,,,,,,,29.67756890000055,29.719494699998904,29.790837900000042,513424,001,2024-04-28_12h49.16.213,ArchivoPrueba,2024.1.1,None,2024-04-28 12h49.29.294863 -0500,
" ¿Recuerda el recorrido desde la entrada de su lugar de trabajo hasta su oficina, donde realiza sus funciones?",9,yellow,0,9,9,9,0,4,4,4,29.836104399999385,,,,,,,,,,,,,,,29.79251110000041,29.836104399999385,29.90369129999999,513424,001,2024-04-28_12h49.16.213,ArchivoPrueba,2024.1.1,None,2024-04-28 12h49.29.294863 -0500,
¿Recuerda alguna actividad que realice durante los viajes de regreso a casa desde el trabajo para relajarse?,11,orange,0,9,9,9,0,5,5,5,29.95288509999955,,,,,,,,,,,,,,,29.904935500000647,29.95288509999955,29.971419399998922,513424,001,2024-04-28_12h49.16.213,ArchivoPrueba,2024.1.1,None,2024-04-28 12h49.29.294863 -0500,
¿Recuerda el trayecto que realiza desde su casa hasta el lugar donde realiza sus compras?,13,brown,0,9,9,9,0,6,6,6,30.020582099999956,,,,,,,,,,,,,,,29.97286940000049,30.020582099999956,30.09436999999889,513424,001,2024-04-28_12h49.16.213,ArchivoPrueba,2024.1.1,None,2024-04-28 12h49.29.294863 -0500,
¿Recuerda alguna situación divertida o interesante que haya experimentado durante el recorrido hacia el lugar de compras?,15,purple,0,9,9,9,0,7,7,7,30.136086999998952,,,,,,,,,,,,,,,30.09692200000063,30.136086999998952,30.20685670000057,513424,001,2024-04-28_12h49.16.213,ArchivoPrueba,2024.1.1,None,2024-04-28 12h49.29.294863 -0500,
 ¿Recuerda qué es lo primero que ve al llegar al lugar donde realiza sus compras?,17,green,0,9,9,9,0,8,8,8,30.252367299999605,,,,,,,,,,,,,,,30.208071400000335,30.252367299999605,30.279183499998908,513424,001,2024-04-28_12h49.16.213,ArchivoPrueba,2024.1.1,None,2024-04-28 12h49.29.294863 -0500,
¿Recuerda el recorrido desde su residencia hasta el centro de resonancia magnética?,19,red,0,9,9,9,0,9,9,9,30.319050899999638,,,,,,,,,,,,,,,30.28131570000005,30.319050899999638,30.37435379999988,513424,001,2024-04-28_12h49.16.213,ArchivoPrueba,2024.1.1,None,2024-04-28 12h49.29.294863 -0500,
None,21,white,0,9,9,9,0,10,10,10,30.41950259999976,,,,,,,,,,,,,,,30.375606499999776,30.41950259999976,30.49009230000047,513424,001,2024-04-28_12h49.16.213,ArchivoPrueba,2024.1.1,None,2024-04-28 12h49.29.294863 -0500,
None,23,blue,0,9,9,9,0,11,11,11,30.53581909999957,,,,,,,,,,,,,,,30.491706099999647,30.53581909999957,30.609152099999847,513424,001,2024-04-28_12h49.16.213,ArchivoPrueba,2024.1.1,None,2024-04-28 12h49.29.294863 -0500,
None,25,yellow,0,9,9,9,0,12,12,12,30.653231099999175,,,,,,,,,,,,,,,30.610810300000594,30.653231099999175,30.68773279999914,513424,001,2024-04-28_12h49.16.213,ArchivoPrueba,2024.1.1,None,2024-04-28 12h49.29.294863 -0500,
None,27,orange,0,9,9,9,0,13,13,13,30.7362592999998,,,,,,,,,,,,,,,30.689581700000417,30.7362592999998,30.76289270000052,513424,001,2024-04-28_12h49.16.213,ArchivoPrueba,2024.1.1,None,2024-04-28 12h49.29.294863 -0500,
None,29,brown,0,9,9,9,0,14,14,14,30.800795299999663,,,,,,,,,,,,,,,30.76644750000014,30.800795299999663,30.891617499999484,513424,001,2024-04-28_12h49.16.213,ArchivoPrueba,2024.1.1,None,2024-04-28 12h49.29.294863 -0500,
None,31,purple,0,9,9,9,0,15,15,15,30.93575679999958,,,,,,,,,,,,,,,30.892790800000512,30.93575679999958,31.002308400000402,513424,001,2024-04-28_12h49.16.213,ArchivoPrueba,2024.1.1,None,2024-04-28 12h49.29.294863 -0500,
None,33,green,0,9,9,9,0,16,16,16,31.035534499998903,,,,,,,,,,,,,,,31.0035398,31.035534499998903,31.097920799998974,513424,001,2024-04-28_12h49.16.213,ArchivoPrueba,2024.1.1,None,2024-04-28 12h49.29.294863 -0500,
None,35,red,0,9,9,9,0,17,17,17,31.13519559999986,,,,,,,,,,,,,,,31.09914679999929,31.13519559999986,31.20789530000002,513424,001,2024-04-28_12h49.16.213,ArchivoPrueba,2024.1.1,None,2024-04-28 12h49.29.294863 -0500,
None,37,white,0,9,9,9,0,18,18,18,31.251551899998958,,,,,,,,,,,,,,,31.209220700000515,31.251551899998958,31.28406510000059,513424,001,2024-04-28_12h49.16.213,ArchivoPrueba,2024.1.1,None,2024-04-28 12h49.29.294863 -0500,
None,39,blue,0,9,9,9,0,19,19,19,31.336427000000185,,,,,,,,,,,,,,,31.28752709999935,31.336427000000185,31.38292949999959,513424,001,2024-04-28_12h49.16.213,ArchivoPrueba,2024.1.1,None,2024-04-28 12h49.29.294863 -0500,
¿Recuerda el recorrido desde su residencia hasta el centro de resonancia magnética?,19,red,0,9,9,9,,,,,,,,,,,,,,,,,,,,,,,513424,001,2024-04-28_12h49.16.213,ArchivoPrueba,2024.1.1,None,2024-04-28 12h49.29.294863 -0500,
¿Recuerda el recorrido que realiza desde su cama hasta la cocina de su residencia?,1,green,0,10,10,10,0,0,0,0,32.47085709999919,,,,,,,,,,,,31.385659800000212,31.45169739999983,32.38905419999901,32.43265430000065,32.47085709999919,32.50672769999983,513424,001,2024-04-28_12h49.16.213,ArchivoPrueba,2024.1.1,None,2024-04-28 12h49.29.294863 -0500,
¿Recuerda el trayecto que hace desde su casa hasta su lugar de trabajo?,3,red,0,10,10,10,0,1,1,1,32.57654449999973,,,,,,,,,,,,,,,32.50925970000026,32.57654449999973,32.58902300000045,513424,001,2024-04-28_12h49.16.213,ArchivoPrueba,2024.1.1,None,2024-04-28 12h49.29.294863 -0500,
¿Recuerda  algún inconveniente que ha  experimentado en el camino de su residencia a su lugar de trabajo?,5,white,0,10,10,10,0,2,2,2,32.61757539999962,,,,,,,,,,,,,,,32.58958139999959,32.61757539999962,32.700593699999445,513424,001,2024-04-28_12h49.16.213,ArchivoPrueba,2024.1.1,None,2024-04-28 12h49.29.294863 -0500,
¿Recuerda si hay algún lugar u objeto en su camino hacia el trabajo que le llame la atención?,7,blue,0,10,10,10,0,3,3,3,32.735767099999066,,,,,,,,,,,,,,,32.701580099999774,32.735767099999066,32.78590859999895,513424,001,2024-04-28_12h49.16.213,ArchivoPrueba,2024.1.1,None,2024-04-28 12h49.29.294863 -0500,
" ¿Recuerda el recorrido desde la entrada de su lugar de trabajo hasta su oficina, donde realiza sus funciones?",9,yellow,0,10,10,10,0,4,4,4,32.81913179999901,,,,,,,,,,,,,,,32.78690040000038,32.81913179999901,32.86735529999896,513424,001,2024-04-28_12h49.16.213,ArchivoPrueba,2024.1.1,None,2024-04-28 12h49.29.294863 -0500,
¿Recuerda alguna actividad que realice durante los viajes de regreso a casa desde el trabajo para relajarse?,11,orange,0,10,10,10,0,5,5,5,32.902129099999,,,,,,,,,,,,,,,32.868295399999624,32.902129099999,32.9895446999999,513424,001,2024-04-28_12h49.16.213,ArchivoPrueba,2024.1.1,None,2024-04-28 12h49.29.294863 -0500,
¿Recuerda el trayecto que realiza desde su casa hasta el lugar donde realiza sus compras?,13,brown,0,10,10,10,0,6,6,6,33.03680209999948,,,,,,,,,,,,,,,32.990956199999346,33.03680209999948,33.122238500000094,513424,001,2024-04-28_12h49.16.213,ArchivoPrueba,2024.1.1,None,2024-04-28 12h49.29.294863 -0500,
¿Recuerda alguna situación divertida o interesante que haya experimentado durante el recorrido hacia el lugar de compras?,15,purple,0,10,10,10,0,7,7,7,33.17171059999964,,,,,,,,,,,,,,,33.12475369999993,33.17171059999964,33.17901089999941,513424,001,2024-04-28_12h49.16.213,ArchivoPrueba,2024.1.1,None,2024-04-28 12h49.29.294863 -0500,
 ¿Recuerda qué es lo primero que ve al llegar al lugar donde realiza sus compras?,17,green,0,10,10,10,0,8,8,8,33.220026699998925,,,,,,,,,,,,,,,33.17980290000014,33.220026699998925,33.26775119999911,513424,001,2024-04-28_12h49.16.213,ArchivoPrueba,2024.1.1,None,2024-04-28 12h49.29.294863 -0500,
¿Recuerda el recorrido desde su residencia hasta el centro de resonancia magnética?,19,red,0,10,10,10,0,9,9,9,33.318068999999014,,,,,,,,,,,,,,,33.26898849999998,33.318068999999014,33.41216270000041,513424,001,2024-04-28_12h49.16.213,ArchivoPrueba,2024.1.1,None,2024-04-28 12h49.29.294863 -0500,
None,21,white,0,10,10,10,0,10,10,10,33.454700299998876,,,,,,,,,,,,,,,33.41461569999956,33.454700299998876,33.48037639999893,513424,001,2024-04-28_12h49.16.213,ArchivoPrueba,2024.1.1,None,2024-04-28 12h49.29.294863 -0500,
None,23,blue,0,10,10,10,0,11,11,11,33.520975600000384,,,,,,,,,,,,,,,33.48189839999941,33.520975600000384,33.59191809999902,513424,001,2024-04-28_12h49.16.213,ArchivoPrueba,2024.1.1,None,2024-04-28 12h49.29.294863 -0500,
None,25,yellow,0,10,10,10,0,12,12,12,33.633923100000175,,,,,,,,,,,,,,,33.59423819999938,33.633923100000175,33.66299380000055,513424,001,2024-04-28_12h49.16.213,ArchivoPrueba,2024.1.1,None,2024-04-28 12h49.29.294863 -0500,
None,27,orange,0,10,10,10,0,13,13,13,33.69881189999978,,,,,,,,,,,,,,,33.664286499999434,33.69881189999978,33.76901360000011,513424,001,2024-04-28_12h49.16.213,ArchivoPrueba,2024.1.1,None,2024-04-28 12h49.29.294863 -0500,
None,29,brown,0,10,10,10,0,14,14,14,33.79870970000047,,,,,,,,,,,,,,,33.771215000000666,33.79870970000047,33.93281969999953,513424,001,2024-04-28_12h49.16.213,ArchivoPrueba,2024.1.1,None,2024-04-28 12h49.29.294863 -0500,
None,31,purple,0,10,10,10,0,15,15,15,34.039939099999174,,,,,,,,,,,,,,,33.93379180000011,34.039939099999174,34.22491660000014,513424,001,2024-04-28_12h49.16.213,ArchivoPrueba,2024.1.1,None,2024-04-28 12h49.29.294863 -0500,
None,33,green,0,10,10,10,0,16,16,16,34.282727499999964,,,,,,,,,,,,,,,34.23015970000051,,34.24536059999991,513424,001,2024-04-28_12h49.16.213,ArchivoPrueba,2024.1.1,None,2024-04-28 12h49.29.294863 -0500,
None,35,red,0,10,10,10,0,17,17,17,34.282727499999964,,,,,,,,,,,,,,,34.24688409999908,,34.25428379999903,513424,001,2024-04-28_12h49.16.213,ArchivoPrueba,2024.1.1,None,2024-04-28 12h49.29.294863 -0500,
None,37,white,0,10,10,10,0,18,18,18,34.282727499999964,,,,,,,,,,,,,,,34.25492309999936,,34.26339949999965,513424,001,2024-04-28_12h49.16.213,ArchivoPrueba,2024.1.1,None,2024-04-28 12h49.29.294863 -0500,
None,39,blue,0,10,10,10,0,19,19,19,34.282727499999964,,,,,,,,,,,,,,,34.26393129999997,34.282727499999964,34.387123900000006,513424,001,2024-04-28_12h49.16.213,ArchivoPrueba,2024.1.1,None,2024-04-28 12h49.29.294863 -0500,
None,21,white,0,10,10,10,,,,,,,,,,,,,,,,,,,,,,,513424,001,2024-04-28_12h49.16.213,ArchivoPrueba,2024.1.1,None,2024-04-28 12h49.29.294863 -0500,
¿Recuerda el recorrido que realiza desde su cama hasta la cocina de su residencia?,1,green,0,11,11,11,0,0,0,0,35.48040559999936,,,,,,,,,,,,34.38887260000047,34.43157649999921,35.384365300000354,35.44401409999955,35.48040559999936,35.526872399999775,513424,001,2024-04-28_12h49.16.213,ArchivoPrueba,2024.1.1,None,2024-04-28 12h49.29.294863 -0500,
¿Recuerda el trayecto que hace desde su casa hasta su lugar de trabajo?,3,red,0,11,11,11,0,1,1,1,35.603884899999684,,,,,,,,,,,,,,,35.52835260000029,35.603884899999684,35.704335299999,513424,001,2024-04-28_12h49.16.213,ArchivoPrueba,2024.1.1,None,2024-04-28 12h49.29.294863 -0500,
¿Recuerda  algún inconveniente que ha  experimentado en el camino de su residencia a su lugar de trabajo?,5,white,0,11,11,11,0,2,2,2,35.77341709999928,,,,,,,,,,,,,,,35.70531859999937,,35.722175299999435,513424,001,2024-04-28_12h49.16.213,ArchivoPrueba,2024.1.1,None,2024-04-28 12h49.29.294863 -0500,
¿Recuerda si hay algún lugar u objeto en su camino hacia el trabajo que le llame la atención?,7,blue,0,11,11,11,0,3,3,3,35.77341709999928,,,,,,,,,,,,,,,35.72330849999889,35.77341709999928,35.78796770000008,513424,001,2024-04-28_12h49.16.213,ArchivoPrueba,2024.1.1,None,2024-04-28 12h49.29.294863 -0500,
" ¿Recuerda el recorrido desde la entrada de su lugar de trabajo hasta su oficina, donde realiza sus funciones?",9,yellow,0,11,11,11,0,4,4,4,35.82220140000027,,,,,,,,,,,,,,,35.79213680000066,35.82220140000027,35.89663189999919,513424,001,2024-04-28_12h49.16.213,ArchivoPrueba,2024.1.1,None,2024-04-28 12h49.29.294863 -0500,
¿Recuerda alguna actividad que realice durante los viajes de regreso a casa desde el trabajo para relajarse?,11,orange,0,11,11,11,0,5,5,5,35.9307033999994,,,,,,,,,,,,,,,35.89823079999951,35.9307033999994,35.994342800000595,513424,001,2024-04-28_12h49.16.213,ArchivoPrueba,2024.1.1,None,2024-04-28 12h49.29.294863 -0500,
¿Recuerda el trayecto que realiza desde su casa hasta el lugar donde realiza sus compras?,13,brown,0,11,11,11,0,6,6,6,36.04172319999998,,,,,,,,,,,,,,,35.99518320000061,36.04172319999998,36.08632029999899,513424,001,2024-04-28_12h49.16.213,ArchivoPrueba,2024.1.1,None,2024-04-28 12h49.29.294863 -0500,
¿Recuerda alguna situación divertida o interesante que haya experimentado durante el recorrido hacia el lugar de compras?,15,purple,0,11,11,11,0,7,7,7,36.11189949999971,,,,,,,,,,,,,,,36.0869244000005,36.11189949999971,36.18871720000061,513424,001,2024-04-28_12h49.16.213,ArchivoPrueba,2024.1.1,None,2024-04-28 12h49.29.294863 -0500,
 ¿Recuerda qué es lo primero que ve al llegar al lugar donde realiza sus compras?,17,green,0,11,11,11,0,8,8,8,36.21497079999972,,,,,,,,,,,,,,,36.18954250000024,36.21497079999972,36.304859800000486,513424,001,2024-04-28_12h49.16.213,ArchivoPrueba,2024.1.1,None,2024-04-28 12h49.29.294863 -0500,
¿Recuerda el recorrido desde su residencia hasta el centro de resonancia magnética?,19,red,0,11,11,11,0,9,9,9,36.41751870000007,,,,,,,,,,,,,,,36.30981079999947,36.41751870000007,36.431711400000495,513424,001,2024-04-28_12h49.16.213,ArchivoPrueba,2024.1.1,None,2024-04-28 12h49.29.294863 -0500,
None,21,white,0,11,11,11,0,10,10,10,36.46218260000023,,,,,,,,,,,,,,,36.43326519999937,36.46218260000023,36.473693699999785,513424,001,2024-04-28_12h49.16.213,ArchivoPrueba,2024.1.1,None,2024-04-28 12h49.29.294863 -0500,
None,23,blue,0,11,11,11,0,11,11,11,36.49504259999958,,,,,,,,,,,,,,,36.47439209999902,36.49504259999958,36.58577849999892,513424,001,2024-04-28_12h49.16.213,ArchivoPrueba,2024.1.1,None,2024-04-28 12h49.29.294863 -0500,
None,25,yellow,0,11,11,11,0,12,12,12,36.61739010000019,,,,,,,,,,,,,,,36.586453599999004,36.61739010000019,36.68085350000001,513424,001,2024-04-28_12h49.16.213,ArchivoPrueba,2024.1.1,None,2024-04-28 12h49.29.294863 -0500,
None,27,orange,0,11,11,11,0,13,13,13,36.717973700000584,,,,,,,,,,,,,,,36.6823932999996,36.717973700000584,36.7733946999997,513424,001,2024-04-28_12h49.16.213,ArchivoPrueba,2024.1.1,None,2024-04-28 12h49.29.294863 -0500,
None,29,brown,0,11,11,11,0,14,14,14,36.79779830000007,,,,,,,,,,,,,,,36.774084000000585,36.79779830000007,36.869971899999655,513424,001,2024-04-28_12h49.16.213,ArchivoPrueba,2024.1.1,None,2024-04-28 12h49.29.294863 -0500,
None,31,purple,0,11,11,11,0,15,15,15,36.89499950000027,,,,,,,,,,,,,,,36.87074620000021,36.89499950000027,36.96826920000058,513424,001,2024-04-28_12h49.16.213,ArchivoPrueba,2024.1.1,None,2024-04-28 12h49.29.294863 -0500,
None,33,green,0,11,11,11,0,16,16,16,36.99569630000042,,,,,,,,,,,,,,,36.96890759999951,36.99569630000042,37.097612199999276,513424,001,2024-04-28_12h49.16.213,ArchivoPrueba,2024.1.1,None,2024-04-28 12h49.29.294863 -0500,
None,35,red,0,11,11,11,0,17,17,17,37.16382320000048,,,,,,,,,,,,,,,37.098802099999375,37.16382320000048,37.1829744000006,513424,001,2024-04-28_12h49.16.213,ArchivoPrueba,2024.1.1,None,2024-04-28 12h49.29.294863 -0500,
None,37,white,0,11,11,11,0,18,18,18,37.22504300000037,,,,,,,,,,,,,,,37.18434309999975,37.22504300000037,37.27976159999889,513424,001,2024-04-28_12h49.16.213,ArchivoPrueba,2024.1.1,None,2024-04-28 12h49.29.294863 -0500,
None,39,blue,0,11,11,11,0,19,19,19,37.311791500000254,,,,,,,,,,,,,,,37.28100280000035,37.311791500000254,37.39017409999906,513424,001,2024-04-28_12h49.16.213,ArchivoPrueba,2024.1.1,None,2024-04-28 12h49.29.294863 -0500,
None,23,blue,0,11,11,11,,,,,,,,,,,,,,,,,,,,,,,513424,001,2024-04-28_12h49.16.213,ArchivoPrueba,2024.1.1,None,2024-04-28 12h49.29.294863 -0500,
¿Recuerda el recorrido que realiza desde su cama hasta la cocina de su residencia?,1,green,0,12,12,12,0,0,0,0,38.52645459999985,,,,,,,,,,,,37.39139520000026,37.427825999999186,38.39160380000067,38.42309729999943,38.52645459999985,38.53935470000033,513424,001,2024-04-28_12h49.16.213,ArchivoPrueba,2024.1.1,None,2024-04-28 12h49.29.294863 -0500,
,,,,,,,,,,,38.55996670000059,,,,,,,,,,,,,,,38.54075059999923,38.55996670000059,,,,,,,,,
