PreguntaOff,PreguntaOn,Colors,Prueba.thisRepN,Prueba.thisTrialN,Prueba.thisN,Prueba.thisIndex,RepeticionOn.thisRepN,RepeticionOn.thisTrialN,RepeticionOn.thisN,RepeticionOn.thisIndex,thisRow.t,notes,introducción_3.started,introducción.started,mouse.started,introducción_3.stopped,mouse.x,mouse.y,mouse.leftButton,mouse.midButton,mouse.rightButton,mouse.time,Off.started,CondicionOff.started,Off.stopped,On.started,CondicionOn.started,On.stopped,CondicionOn.stopped,CondicionOff.stopped,participant,session,date,expName,psychopyVersion,frameRate,expStart,
,,,,,,,,,,,,,0.022525600000335544,0.04636819999996078,0.022134200000436977,2.636604900000748,[-0.12760416666666666],[0.17578125],[1],[0],[0],[2.6131650999996054],,,,,,,,,619168,001,2024-04-28_11h35.34.981,ArchivoPrueba,2024.1.1,None,2024-04-28 11h35.44.751028 -0500,
¿Recuerda el recorrido que realiza desde su cama hasta la cocina de su residencia?,1,green,0,0,0,0,0,0,0,0,3.6760874000001422,,,,,,,,,,,,2.64785110000048,2.677636700000221,3.6510307000007742,3.6619007000008423,3.6760874000001422,3.7503056000005017,,,619168,001,2024-04-28_11h35.34.981,ArchivoPrueba,2024.1.1,None,2024-04-28 11h35.44.751028 -0500,
¿Recuerda el trayecto que hace desde su casa hasta su lugar de trabajo?,3,red,0,0,0,0,0,1,1,1,3.776218599999993,,,,,,,,,,,,,,,3.750647100000606,3.776218599999993,3.850339800000256,,,619168,001,2024-04-28_11h35.34.981,ArchivoPrueba,2024.1.1,None,2024-04-28 11h35.44.751028 -0500,
¿Recuerda  algún inconveniente que ha  experimentado en el camino de su residencia a su lugar de trabajo?,5,white,0,0,0,0,0,2,2,2,3.876042900000357,,,,,,,,,,,,,,,3.850688600000467,3.876042900000357,3.949973300000238,,,619168,001,2024-04-28_11h35.34.981,ArchivoPrueba,2024.1.1,None,2024-04-28 11h35.44.751028 -0500,
¿Recuerda si hay algún lugar u objeto en su camino hacia el trabajo que le llame la atención?,7,blue,0,0,0,0,0,3,3,3,3.97599320000063,,,,,,,,,,,,,,,3.950243400000545,3.97599320000063,4.050054300000738,,,619168,001,2024-04-28_11h35.34.981,ArchivoPrueba,2024.1.1,None,2024-04-28 11h35.44.751028 -0500,
" ¿Recuerda el recorrido desde la entrada de su lugar de trabajo hasta su oficina, donde realiza sus funciones?",9,yellow,0,0,0,0,0,4,4,4,4.076190300000235,,,,,,,,,,,,,,,4.050432000000001,4.076190300000235,4.150086600000577,,,619168,001,2024-04-28_11h35.34.981,ArchivoPrueba,2024.1.1,None,2024-04-28 11h35.44.751028 -0500,
¿Recuerda alguna actividad que realice durante los viajes de regreso a casa desde el trabajo para relajarse?,11,orange,0,0,0,0,0,5,5,5,4.163192700000764,,,,,,,,,,,,,,,4.150454999999965,4.163192700000764,4.249737200000709,,,619168,001,2024-04-28_11h35.34.981,ArchivoPrueba,2024.1.1,None,2024-04-28 11h35.44.751028 -0500,
¿Recuerda el trayecto que realiza desde su casa hasta el lugar donde realiza sus compras?,13,brown,0,0,0,0,0,6,6,6,4.263247500000034,,,,,,,,,,,,,,,4.250059100000726,4.263247500000034,4.349735700000565,,,619168,001,2024-04-28_11h35.34.981,ArchivoPrueba,2024.1.1,None,2024-04-28 11h35.44.751028 -0500,
¿Recuerda alguna situación divertida o interesante que haya experimentado durante el recorrido hacia el lugar de compras?,15,purple,0,0,0,0,0,7,7,7,4.363168100000621,,,,,,,,,,,,,,,4.35001100000045,4.363168100000621,4.4500651000007565,,,619168,001,2024-04-28_11h35.34.981,ArchivoPrueba,2024.1.1,None,2024-04-28 11h35.44.751028 -0500,
 ¿Recuerda qué es lo primero que ve al llegar al lugar donde realiza sus compras?,17,green,0,0,0,0,0,8,8,8,4.46285110000008,,,,,,,,,,,,,,,4.450387900000351,4.46285110000008,4.549643800000013,,,619168,001,2024-04-28_11h35.34.981,ArchivoPrueba,2024.1.1,None,2024-04-28 11h35.44.751028 -0500,
¿Recuerda el recorrido desde su residencia hasta el centro de resonancia magnética?,19,red,0,0,0,0,0,9,9,9,4.563053100000616,,,,,,,,,,,,,,,4.550049400000717,4.563053100000616,4.649348700000701,,,619168,001,2024-04-28_11h35.34.981,ArchivoPrueba,2024.1.1,None,2024-04-28 11h35.44.751028 -0500,
None,21,white,0,0,0,0,0,10,10,10,4.675341099999969,,,,,,,,,,,,,,,4.649614400000246,4.675341099999969,4.74943390000044,,,619168,001,2024-04-28_11h35.34.981,ArchivoPrueba,2024.1.1,None,2024-04-28 11h35.44.751028 -0500,
None,23,blue,0,0,0,0,0,11,11,11,4.762632900000426,,,,,,,,,,,,,,,4.749796400000378,4.762632900000426,4.84943210000074,,,619168,001,2024-04-28_11h35.34.981,ArchivoPrueba,2024.1.1,None,2024-04-28 11h35.44.751028 -0500,
None,25,yellow,0,0,0,0,0,12,12,12,4.862629800000832,,,,,,,,,,,,,,,4.849823800000195,4.862629800000832,4.949451700000282,,,619168,001,2024-04-28_11h35.34.981,ArchivoPrueba,2024.1.1,None,2024-04-28 11h35.44.751028 -0500,
None,27,orange,0,0,0,0,0,13,13,13,4.9626876000002085,,,,,,,,,,,,,,,4.949812900000325,4.9626876000002085,5.048992700000781,,,619168,001,2024-04-28_11h35.34.981,ArchivoPrueba,2024.1.1,None,2024-04-28 11h35.44.751028 -0500,
None,29,brown,0,0,0,0,0,14,14,14,5.0627628000002005,,,,,,,,,,,,,,,5.049284100000477,5.0627628000002005,5.148954700000104,,,619168,001,2024-04-28_11h35.34.981,ArchivoPrueba,2024.1.1,None,2024-04-28 11h35.44.751028 -0500,
None,31,purple,0,0,0,0,0,15,15,15,5.162745800000266,,,,,,,,,,,,,,,5.149275100000523,5.162745800000266,5.249555700000201,,,619168,001,2024-04-28_11h35.34.981,ArchivoPrueba,2024.1.1,None,2024-04-28 11h35.44.751028 -0500,
None,33,green,0,0,0,0,0,16,16,16,5.262134500000684,,,,,,,,,,,,,,,5.249922700000752,5.262134500000684,5.349309400000493,,,619168,001,2024-04-28_11h35.34.981,ArchivoPrueba,2024.1.1,None,2024-04-28 11h35.44.751028 -0500,
None,35,red,0,0,0,0,0,17,17,17,5.362037200000486,,,,,,,,,,,,,,,5.3496005000006335,5.362037200000486,5.449393800000507,,,619168,001,2024-04-28_11h35.34.981,ArchivoPrueba,2024.1.1,None,2024-04-28 11h35.44.751028 -0500,
None,37,white,0,0,0,0,0,18,18,18,5.476257700000133,,,,,,,,,,,,,,,5.449712700000418,5.476257700000133,5.549054300000535,,,619168,001,2024-04-28_11h35.34.981,ArchivoPrueba,2024.1.1,None,2024-04-28 11h35.44.751028 -0500,
None,39,blue,0,0,0,0,0,19,19,19,5.5619495000000825,,,,,,,,,,,,,,,5.549324500000694,5.5619495000000825,5.649133600000823,,,619168,001,2024-04-28_11h35.34.981,ArchivoPrueba,2024.1.1,None,2024-04-28 11h35.44.751028 -0500,
¿Recuerda el recorrido que realiza desde su cama hasta la cocina de su residencia?,1,green,0,0,0,0,,,,,,,,,,,,,,,,,,,,,,,,,619168,001,2024-04-28_11h35.34.981,ArchivoPrueba,2024.1.1,None,2024-04-28 11h35.44.751028 -0500,
¿Recuerda el recorrido que realiza desde su cama hasta la cocina de su residencia?,1,green,0,1,1,1,0,0,0,0,6.675296100000196,,,,,,,,,,,,5.649502100000063,5.6747261000000435,6.648375700000543,6.659005600000455,6.675296100000196,6.74825360000068,,,619168,001,2024-04-28_11h35.34.981,ArchivoPrueba,2024.1.1,None,2024-04-28 11h35.44.751028 -0500,
¿Recuerda el trayecto que hace desde su casa hasta su lugar de trabajo?,3,red,0,1,1,1,0,1,1,1,6.7607339000005595,,,,,,,,,,,,,,,6.748520800000733,6.7607339000005595,6.848115300000245,,,619168,001,2024-04-28_11h35.34.981,ArchivoPrueba,2024.1.1,None,2024-04-28 11h35.44.751028 -0500,
¿Recuerda  algún inconveniente que ha  experimentado en el camino de su residencia a su lugar de trabajo?,5,white,0,1,1,1,0,2,2,2,6.860892100000456,,,,,,,,,,,,,,,6.848437000000558,6.860892100000456,6.947493300000133,,,619168,001,2024-04-28_11h35.34.981,ArchivoPrueba,2024.1.1,None,2024-04-28 11h35.44.751028 -0500,
¿Recuerda si hay algún lugar u objeto en su camino hacia el trabajo que le llame la atención?,7,blue,0,1,1,1,0,3,3,3,6.961065299999973,,,,,,,,,,,,,,,6.947773800000505,6.961065299999973,7.04747370000041,,,619168,001,2024-04-28_11h35.34.981,ArchivoPrueba,2024.1.1,None,2024-04-28 11h35.44.751028 -0500,
" ¿Recuerda el recorrido desde la entrada de su lugar de trabajo hasta su oficina, donde realiza sus funciones?",9,yellow,0,1,1,1,0,4,4,4,7.075050800000099,,,,,,,,,,,,,,,7.047767300000487,7.075050800000099,7.147986100000708,,,619168,001,2024-04-28_11h35.34.981,ArchivoPrueba,2024.1.1,None,2024-04-28 11h35.44.751028 -0500,
¿Recuerda alguna actividad que realice durante los viajes de regreso a casa desde el trabajo para relajarse?,11,orange,0,1,1,1,0,5,5,5,7.174776500000007,,,,,,,,,,,,,,,7.148314600000049,7.174776500000007,7.247492400000738,,,619168,001,2024-04-28_11h35.34.981,ArchivoPrueba,2024.1.1,None,2024-04-28 11h35.44.751028 -0500,
¿Recuerda el trayecto que realiza desde su casa hasta el lugar donde realiza sus compras?,13,brown,0,1,1,1,0,6,6,6,7.260980200000631,,,,,,,,,,,,,,,7.247761300000093,7.260980200000631,7.3478720000002795,,,619168,001,2024-04-28_11h35.34.981,ArchivoPrueba,2024.1.1,None,2024-04-28 11h35.44.751028 -0500,
¿Recuerda alguna situación divertida o interesante que haya experimentado durante el recorrido hacia el lugar de compras?,15,purple,0,1,1,1,0,7,7,7,7.374720000000707,,,,,,,,,,,,,,,7.348265400000855,7.374720000000707,7.447729299999992,,,619168,001,2024-04-28_11h35.34.981,ArchivoPrueba,2024.1.1,None,2024-04-28 11h35.44.751028 -0500,
 ¿Recuerda qué es lo primero que ve al llegar al lugar donde realiza sus compras?,17,green,0,1,1,1,0,8,8,8,7.474701699999969,,,,,,,,,,,,,,,7.448043900000812,7.474701699999969,7.547369700000672,,,619168,001,2024-04-28_11h35.34.981,ArchivoPrueba,2024.1.1,None,2024-04-28 11h35.44.751028 -0500,
¿Recuerda el recorrido desde su residencia hasta el centro de resonancia magnética?,19,red,0,1,1,1,0,9,9,9,7.560296200000266,,,,,,,,,,,,,,,7.547640500000853,7.560296200000266,7.647367500000655,,,619168,001,2024-04-28_11h35.34.981,ArchivoPrueba,2024.1.1,None,2024-04-28 11h35.44.751028 -0500,
None,21,white,0,1,1,1,0,10,10,10,7.674787000000833,,,,,,,,,,,,,,,7.6476370000000315,7.674787000000833,7.746937500000058,,,619168,001,2024-04-28_11h35.34.981,ArchivoPrueba,2024.1.1,None,2024-04-28 11h35.44.751028 -0500,
None,23,blue,0,1,1,1,0,11,11,11,7.760083500000292,,,,,,,,,,,,,,,7.7473154000008435,7.760083500000292,7.846922800000357,,,619168,001,2024-04-28_11h35.34.981,ArchivoPrueba,2024.1.1,None,2024-04-28 11h35.44.751028 -0500,
None,25,yellow,0,1,1,1,0,12,12,12,7.86010990000068,,,,,,,,,,,,,,,7.847290700000485,7.86010990000068,7.946682900000269,,,619168,001,2024-04-28_11h35.34.981,ArchivoPrueba,2024.1.1,None,2024-04-28 11h35.44.751028 -0500,
None,27,orange,0,1,1,1,0,13,13,13,7.960018100000525,,,,,,,,,,,,,,,7.947043500000291,7.960018100000525,8.046500200000082,,,619168,001,2024-04-28_11h35.34.981,ArchivoPrueba,2024.1.1,None,2024-04-28 11h35.44.751028 -0500,
None,29,brown,0,1,1,1,0,14,14,14,8.06005610000011,,,,,,,,,,,,,,,8.046783200000391,8.06005610000011,8.146547500000452,,,619168,001,2024-04-28_11h35.34.981,ArchivoPrueba,2024.1.1,None,2024-04-28 11h35.44.751028 -0500,
None,31,purple,0,1,1,1,0,15,15,15,8.15985610000007,,,,,,,,,,,,,,,8.146873100000448,8.15985610000007,8.246495300000788,,,619168,001,2024-04-28_11h35.34.981,ArchivoPrueba,2024.1.1,None,2024-04-28 11h35.44.751028 -0500,
None,33,green,0,1,1,1,0,16,16,16,8.259537300000375,,,,,,,,,,,,,,,8.246812200000022,8.259537300000375,8.346710100000564,,,619168,001,2024-04-28_11h35.34.981,ArchivoPrueba,2024.1.1,None,2024-04-28 11h35.44.751028 -0500,
None,35,red,0,1,1,1,0,17,17,17,8.35956780000015,,,,,,,,,,,,,,,8.34703300000001,8.35956780000015,8.446217700000489,,,619168,001,2024-04-28_11h35.34.981,ArchivoPrueba,2024.1.1,None,2024-04-28 11h35.44.751028 -0500,
None,37,white,0,1,1,1,0,18,18,18,8.473701600000823,,,,,,,,,,,,,,,8.446595600000364,8.473701600000823,8.546607900000708,,,619168,001,2024-04-28_11h35.34.981,ArchivoPrueba,2024.1.1,None,2024-04-28 11h35.44.751028 -0500,
None,39,blue,0,1,1,1,0,19,19,19,8.573542300000554,,,,,,,,,,,,,,,8.546881500000381,8.573542300000554,8.645951500000592,,,619168,001,2024-04-28_11h35.34.981,ArchivoPrueba,2024.1.1,None,2024-04-28 11h35.44.751028 -0500,
¿Recuerda el trayecto que hace desde su casa hasta su lugar de trabajo?,3,red,0,1,1,1,,,,,,,,,,,,,,,,,,,,,,,,,619168,001,2024-04-28_11h35.34.981,ArchivoPrueba,2024.1.1,None,2024-04-28 11h35.44.751028 -0500,
¿Recuerda el recorrido que realiza desde su cama hasta la cocina de su residencia?,1,green,0,2,2,2,0,0,0,0,9.672660000000178,,,,,,,,,,,,8.646340900000723,8.672107600000345,9.645788800000446,9.656552000000374,9.672660000000178,9.745354900000166,,,619168,001,2024-04-28_11h35.34.981,ArchivoPrueba,2024.1.1,None,2024-04-28 11h35.44.751028 -0500,
¿Recuerda el trayecto que hace desde su casa hasta su lugar de trabajo?,3,red,0,2,2,2,0,1,1,1,9.772561500000847,,,,,,,,,,,,,,,9.745671000000584,9.772561500000847,9.845326800000294,,,619168,001,2024-04-28_11h35.34.981,ArchivoPrueba,2024.1.1,None,2024-04-28 11h35.44.751028 -0500,
¿Recuerda  algún inconveniente que ha  experimentado en el camino de su residencia a su lugar de trabajo?,5,white,0,2,2,2,0,2,2,2,9.87243430000035,,,,,,,,,,,,,,,9.845651500000713,9.87243430000035,9.944840099999965,,,619168,001,2024-04-28_11h35.34.981,ArchivoPrueba,2024.1.1,None,2024-04-28 11h35.44.751028 -0500,
¿Recuerda si hay algún lugar u objeto en su camino hacia el trabajo que le llame la atención?,7,blue,0,2,2,2,0,3,3,3,9.95826230000057,,,,,,,,,,,,,,,9.945124100000612,9.95826230000057,10.044600800000808,,,619168,001,2024-04-28_11h35.34.981,ArchivoPrueba,2024.1.1,None,2024-04-28 11h35.44.751028 -0500,
" ¿Recuerda el recorrido desde la entrada de su lugar de trabajo hasta su oficina, donde realiza sus funciones?",9,yellow,0,2,2,2,0,4,4,4,10.058170400000563,,,,,,,,,,,,,,,10.04487490000065,10.058170400000563,10.144777800000156,,,619168,001,2024-04-28_11h35.34.981,ArchivoPrueba,2024.1.1,None,2024-04-28 11h35.44.751028 -0500,
¿Recuerda alguna actividad que realice durante los viajes de regreso a casa desde el trabajo para relajarse?,11,orange,0,2,2,2,0,5,5,5,10.157799600000544,,,,,,,,,,,,,,,10.145067100000233,10.157799600000544,10.24494709999999,,,619168,001,2024-04-28_11h35.34.981,ArchivoPrueba,2024.1.1,None,2024-04-28 11h35.44.751028 -0500,
¿Recuerda el trayecto que realiza desde su casa hasta el lugar donde realiza sus compras?,13,brown,0,2,2,2,0,6,6,6,10.271994900000209,,,,,,,,,,,,,,,10.245215000000826,10.271994900000209,10.34459920000063,,,619168,001,2024-04-28_11h35.34.981,ArchivoPrueba,2024.1.1,None,2024-04-28 11h35.44.751028 -0500,
¿Recuerda alguna situación divertida o interesante que haya experimentado durante el recorrido hacia el lugar de compras?,15,purple,0,2,2,2,0,7,7,7,10.357614000000467,,,,,,,,,,,,,,,10.344895900000665,10.357614000000467,10.445010100000218,,,619168,001,2024-04-28_11h35.34.981,ArchivoPrueba,2024.1.1,None,2024-04-28 11h35.44.751028 -0500,
 ¿Recuerda qué es lo primero que ve al llegar al lugar donde realiza sus compras?,17,green,0,2,2,2,0,8,8,8,10.47197320000032,,,,,,,,,,,,,,,10.445351600000322,10.47197320000032,10.544677500000034,,,619168,001,2024-04-28_11h35.34.981,ArchivoPrueba,2024.1.1,None,2024-04-28 11h35.44.751028 -0500,
¿Recuerda el recorrido desde su residencia hasta el centro de resonancia magnética?,19,red,0,2,2,2,0,9,9,9,10.571846000000733,,,,,,,,,,,,,,,10.544949600000109,10.571846000000733,10.644419800000833,,,619168,001,2024-04-28_11h35.34.981,ArchivoPrueba,2024.1.1,None,2024-04-28 11h35.44.751028 -0500,
None,21,white,0,2,2,2,0,10,10,10,10.657359100000576,,,,,,,,,,,,,,,10.644743100000596,10.657359100000576,10.74439480000001,,,619168,001,2024-04-28_11h35.34.981,ArchivoPrueba,2024.1.1,None,2024-04-28 11h35.44.751028 -0500,
None,23,blue,0,2,2,2,0,11,11,11,10.77162750000025,,,,,,,,,,,,,,,10.744713500000216,10.77162750000025,10.84458370000084,,,619168,001,2024-04-28_11h35.34.981,ArchivoPrueba,2024.1.1,None,2024-04-28 11h35.44.751028 -0500,
None,25,yellow,0,2,2,2,0,12,12,12,10.871614300000147,,,,,,,,,,,,,,,10.844874600000367,10.871614300000147,10.94370550000076,,,619168,001,2024-04-28_11h35.34.981,ArchivoPrueba,2024.1.1,None,2024-04-28 11h35.44.751028 -0500,
None,27,orange,0,2,2,2,0,13,13,13,10.971663700000136,,,,,,,,,,,,,,,10.943979900000159,10.971663700000136,11.043752500000664,,,619168,001,2024-04-28_11h35.34.981,ArchivoPrueba,2024.1.1,None,2024-04-28 11h35.44.751028 -0500,
None,29,brown,0,2,2,2,0,14,14,14,11.05725380000058,,,,,,,,,,,,,,,11.044023700000253,11.05725380000058,11.143613800000821,,,619168,001,2024-04-28_11h35.34.981,ArchivoPrueba,2024.1.1,None,2024-04-28 11h35.44.751028 -0500,
None,31,purple,0,2,2,2,0,15,15,15,11.157193600000028,,,,,,,,,,,,,,,11.143907800000306,11.157193600000028,11.243857400000707,,,619168,001,2024-04-28_11h35.34.981,ArchivoPrueba,2024.1.1,None,2024-04-28 11h35.44.751028 -0500,
None,33,green,0,2,2,2,0,16,16,16,11.256940000000213,,,,,,,,,,,,,,,11.244158700000298,11.256940000000213,11.3436485000002,,,619168,001,2024-04-28_11h35.34.981,ArchivoPrueba,2024.1.1,None,2024-04-28 11h35.44.751028 -0500,
None,35,red,0,2,2,2,0,17,17,17,11.356913300000087,,,,,,,,,,,,,,,11.343928200000846,11.356913300000087,11.443981400000666,,,619168,001,2024-04-28_11h35.34.981,ArchivoPrueba,2024.1.1,None,2024-04-28 11h35.44.751028 -0500,
None,37,white,0,2,2,2,0,18,18,18,11.45688070000051,,,,,,,,,,,,,,,11.444248300000254,11.45688070000051,11.543880100000024,,,619168,001,2024-04-28_11h35.34.981,ArchivoPrueba,2024.1.1,None,2024-04-28 11h35.44.751028 -0500,
None,39,blue,0,2,2,2,0,19,19,19,11.571028900000783,,,,,,,,,,,,,,,11.544147400000838,11.571028900000783,11.643544700000348,,,619168,001,2024-04-28_11h35.34.981,ArchivoPrueba,2024.1.1,None,2024-04-28 11h35.44.751028 -0500,
¿Recuerda  algún inconveniente que ha  experimentado en el camino de su residencia a su lugar de trabajo?,5,white,0,2,2,2,,,,,,,,,,,,,,,,,,,,,,,,,619168,001,2024-04-28_11h35.34.981,ArchivoPrueba,2024.1.1,None,2024-04-28 11h35.44.751028 -0500,
¿Recuerda el recorrido que realiza desde su cama hasta la cocina de su residencia?,1,green,0,3,3,3,0,0,0,0,12.670055000000502,,,,,,,,,,,,11.643935600000077,11.669227500000488,12.642850300000646,12.653622499999983,12.670055000000502,12.743008800000098,,,619168,001,2024-04-28_11h35.34.981,ArchivoPrueba,2024.1.1,None,2024-04-28 11h35.44.751028 -0500,
¿Recuerda el trayecto que hace desde su casa hasta su lugar de trabajo?,3,red,0,3,3,3,0,1,1,1,12.76990939999996,,,,,,,,,,,,,,,12.74328340000011,12.76990939999996,12.842216600000029,,,619168,001,2024-04-28_11h35.34.981,ArchivoPrueba,2024.1.1,None,2024-04-28 11h35.44.751028 -0500,
¿Recuerda  algún inconveniente que ha  experimentado en el camino de su residencia a su lugar de trabajo?,5,white,0,3,3,3,0,2,2,2,12.855473800000254,,,,,,,,,,,,,,,12.842504800000825,12.855473800000254,12.942179800000304,,,619168,001,2024-04-28_11h35.34.981,ArchivoPrueba,2024.1.1,None,2024-04-28 11h35.44.751028 -0500,
¿Recuerda si hay algún lugar u objeto en su camino hacia el trabajo que le llame la atención?,7,blue,0,3,3,3,0,3,3,3,12.955633200000193,,,,,,,,,,,,,,,12.942505100000744,12.955633200000193,13.042253800000253,,,619168,001,2024-04-28_11h35.34.981,ArchivoPrueba,2024.1.1,None,2024-04-28 11h35.44.751028 -0500,
" ¿Recuerda el recorrido desde la entrada de su lugar de trabajo hasta su oficina, donde realiza sus funciones?",9,yellow,0,3,3,3,0,4,4,4,13.055531700000756,,,,,,,,,,,,,,,13.042541700000584,13.055531700000756,13.142378500000632,,,619168,001,2024-04-28_11h35.34.981,ArchivoPrueba,2024.1.1,None,2024-04-28 11h35.44.751028 -0500,
¿Recuerda alguna actividad que realice durante los viajes de regreso a casa desde el trabajo para relajarse?,11,orange,0,3,3,3,0,5,5,5,13.155322000000524,,,,,,,,,,,,,,,13.142695900000035,13.155322000000524,13.242452200000116,,,619168,001,2024-04-28_11h35.34.981,ArchivoPrueba,2024.1.1,None,2024-04-28 11h35.44.751028 -0500,
¿Recuerda el trayecto que realiza desde su casa hasta el lugar donde realiza sus compras?,13,brown,0,3,3,3,0,6,6,6,13.26931180000065,,,,,,,,,,,,,,,13.24278410000079,13.26931180000065,13.342009200000575,,,619168,001,2024-04-28_11h35.34.981,ArchivoPrueba,2024.1.1,None,2024-04-28 11h35.44.751028 -0500,
¿Recuerda alguna situación divertida o interesante que haya experimentado durante el recorrido hacia el lugar de compras?,15,purple,0,3,3,3,0,7,7,7,13.355210500000794,,,,,,,,,,,,,,,13.342305800000759,13.355210500000794,13.441744400000061,,,619168,001,2024-04-28_11h35.34.981,ArchivoPrueba,2024.1.1,None,2024-04-28 11h35.44.751028 -0500,
 ¿Recuerda qué es lo primero que ve al llegar al lugar donde realiza sus compras?,17,green,0,3,3,3,0,8,8,8,13.455042200000207,,,,,,,,,,,,,,,13.442046000000119,13.455042200000207,13.54200690000016,,,619168,001,2024-04-28_11h35.34.981,ArchivoPrueba,2024.1.1,None,2024-04-28 11h35.44.751028 -0500,
¿Recuerda el recorrido desde su residencia hasta el centro de resonancia magnética?,19,red,0,3,3,3,0,9,9,9,13.55499140000029,,,,,,,,,,,,,,,13.54227390000051,13.55499140000029,13.642313600000307,,,619168,001,2024-04-28_11h35.34.981,ArchivoPrueba,2024.1.1,None,2024-04-28 11h35.44.751028 -0500,
None,21,white,0,3,3,3,0,10,10,10,13.66912560000037,,,,,,,,,,,,,,,13.642701400000078,13.66912560000037,13.741652100000465,,,619168,001,2024-04-28_11h35.34.981,ArchivoPrueba,2024.1.1,None,2024-04-28 11h35.44.751028 -0500,
None,23,blue,0,3,3,3,0,11,11,11,13.754666499999985,,,,,,,,,,,,,,,13.741951599999993,13.754666499999985,13.842072000000371,,,619168,001,2024-04-28_11h35.34.981,ArchivoPrueba,2024.1.1,None,2024-04-28 11h35.44.751028 -0500,
None,25,yellow,0,3,3,3,0,12,12,12,13.868769800000337,,,,,,,,,,,,,,,13.842367900000681,13.868769800000337,13.941763200000423,,,619168,001,2024-04-28_11h35.34.981,ArchivoPrueba,2024.1.1,None,2024-04-28 11h35.44.751028 -0500,
None,27,orange,0,3,3,3,0,13,13,13,13.968992200000685,,,,,,,,,,,,,,,13.942060700000184,13.968992200000685,14.04177830000026,,,619168,001,2024-04-28_11h35.34.981,ArchivoPrueba,2024.1.1,None,2024-04-28 11h35.44.751028 -0500,
None,29,brown,0,3,3,3,0,14,14,14,14.068739800000003,,,,,,,,,,,,,,,14.042077300000528,14.068739800000003,14.141793900000266,,,619168,001,2024-04-28_11h35.34.981,ArchivoPrueba,2024.1.1,None,2024-04-28 11h35.44.751028 -0500,
None,31,purple,0,3,3,3,0,15,15,15,14.168704400000024,,,,,,,,,,,,,,,14.14206170000034,14.168704400000024,14.24141520000012,,,619168,001,2024-04-28_11h35.34.981,ArchivoPrueba,2024.1.1,None,2024-04-28 11h35.44.751028 -0500,
None,33,green,0,3,3,3,0,16,16,16,14.268671700000596,,,,,,,,,,,,,,,14.241739300000518,14.268671700000596,14.340748100000383,,,619168,001,2024-04-28_11h35.34.981,ArchivoPrueba,2024.1.1,None,2024-04-28 11h35.44.751028 -0500,
None,35,red,0,3,3,3,0,17,17,17,14.354418700000679,,,,,,,,,,,,,,,14.341038200000185,14.354418700000679,14.440817800000332,,,619168,001,2024-04-28_11h35.34.981,ArchivoPrueba,2024.1.1,None,2024-04-28 11h35.44.751028 -0500,
None,37,white,0,3,3,3,0,18,18,18,14.454310900000564,,,,,,,,,,,,,,,14.441104900000028,14.454310900000564,14.540663200000381,,,619168,001,2024-04-28_11h35.34.981,ArchivoPrueba,2024.1.1,None,2024-04-28 11h35.44.751028 -0500,
None,39,blue,0,3,3,3,0,19,19,19,14.554339600000276,,,,,,,,,,,,,,,14.540956499999993,14.554339600000276,14.640665400000216,,,619168,001,2024-04-28_11h35.34.981,ArchivoPrueba,2024.1.1,None,2024-04-28 11h35.44.751028 -0500,
¿Recuerda si hay algún lugar u objeto en su camino hacia el trabajo que le llame la atención?,7,blue,0,3,3,3,,,,,,,,,,,,,,,,,,,,,,,,,619168,001,2024-04-28_11h35.34.981,ArchivoPrueba,2024.1.1,None,2024-04-28 11h35.44.751028 -0500,
¿Recuerda el recorrido que realiza desde su cama hasta la cocina de su residencia?,1,green,0,4,4,4,0,0,0,0,15.667453300000489,,,,,,,,,,,,14.641054600000643,14.666604300000472,15.640409600000567,15.650534600000356,15.667453300000489,15.740307600000051,,,619168,001,2024-04-28_11h35.34.981,ArchivoPrueba,2024.1.1,None,2024-04-28 11h35.44.751028 -0500,
¿Recuerda el trayecto que hace desde su casa hasta su lugar de trabajo?,3,red,0,4,4,4,0,1,1,1,15.767163800000162,,,,,,,,,,,,,,,15.740597300000445,15.767163800000162,15.840508400000544,,,619168,001,2024-04-28_11h35.34.981,ArchivoPrueba,2024.1.1,None,2024-04-28 11h35.44.751028 -0500,
¿Recuerda  algún inconveniente que ha  experimentado en el camino de su residencia a su lugar de trabajo?,5,white,0,4,4,4,0,2,2,2,15.867101100000582,,,,,,,,,,,,,,,15.840885100000378,15.867101100000582,15.939939400000185,,,619168,001,2024-04-28_11h35.34.981,ArchivoPrueba,2024.1.1,None,2024-04-28 11h35.44.751028 -0500,
¿Recuerda si hay algún lugar u objeto en su camino hacia el trabajo que le llame la atención?,7,blue,0,4,4,4,0,3,3,3,15.967423700000836,,,,,,,,,,,,,,,15.940226700000494,15.967423700000836,16.04022900000018,,,619168,001,2024-04-28_11h35.34.981,ArchivoPrueba,2024.1.1,None,2024-04-28 11h35.44.751028 -0500,
" ¿Recuerda el recorrido desde la entrada de su lugar de trabajo hasta su oficina, donde realiza sus funciones?",9,yellow,0,4,4,4,0,4,4,4,16.067068199999994,,,,,,,,,,,,,,,16.040513900000406,16.067068199999994,16.139881200000673,,,619168,001,2024-04-28_11h35.34.981,ArchivoPrueba,2024.1.1,None,2024-04-28 11h35.44.751028 -0500,
¿Recuerda alguna actividad que realice durante los viajes de regreso a casa desde el trabajo para relajarse?,11,orange,0,4,4,4,0,5,5,5,16.16702720000012,,,,,,,,,,,,,,,16.140182400000413,16.16702720000012,16.23974780000026,,,619168,001,2024-04-28_11h35.34.981,ArchivoPrueba,2024.1.1,None,2024-04-28 11h35.44.751028 -0500,
¿Recuerda el trayecto que realiza desde su casa hasta el lugar donde realiza sus compras?,13,brown,0,4,4,4,0,6,6,6,16.266965700000583,,,,,,,,,,,,,,,16.24005380000017,16.266965700000583,16.339553600000727,,,619168,001,2024-04-28_11h35.34.981,ArchivoPrueba,2024.1.1,None,2024-04-28 11h35.44.751028 -0500,
¿Recuerda alguna situación divertida o interesante que haya experimentado durante el recorrido hacia el lugar de compras?,15,purple,0,4,4,4,0,7,7,7,16.366844500000298,,,,,,,,,,,,,,,16.339896800000133,16.366844500000298,16.439846100000068,,,619168,001,2024-04-28_11h35.34.981,ArchivoPrueba,2024.1.1,None,2024-04-28 11h35.44.751028 -0500,
 ¿Recuerda qué es lo primero que ve al llegar al lugar donde realiza sus compras?,17,green,0,4,4,4,0,8,8,8,16.466723400000774,,,,,,,,,,,,,,,16.44019760000083,16.466723400000774,16.539770000000317,,,619168,001,2024-04-28_11h35.34.981,ArchivoPrueba,2024.1.1,None,2024-04-28 11h35.44.751028 -0500,
¿Recuerda el recorrido desde su residencia hasta el centro de resonancia magnética?,19,red,0,4,4,4,0,9,9,9,16.56671340000048,,,,,,,,,,,,,,,16.540240900000754,16.56671340000048,16.639780400000745,,,619168,001,2024-04-28_11h35.34.981,ArchivoPrueba,2024.1.1,None,2024-04-28 11h35.44.751028 -0500,
None,21,white,0,4,4,4,0,10,10,10,16.666638800000328,,,,,,,,,,,,,,,16.640127100000427,16.666638800000328,16.739346500000465,,,619168,001,2024-04-28_11h35.34.981,ArchivoPrueba,2024.1.1,None,2024-04-28 11h35.44.751028 -0500,
None,23,blue,0,4,4,4,0,11,11,11,16.752379700000347,,,,,,,,,,,,,,,16.739613900000222,16.752379700000347,16.83937320000041,,,619168,001,2024-04-28_11h35.34.981,ArchivoPrueba,2024.1.1,None,2024-04-28 11h35.44.751028 -0500,
None,25,yellow,0,4,4,4,0,12,12,12,16.86667430000034,,,,,,,,,,,,,,,16.839669400000275,16.86667430000034,16.938912900000105,,,619168,001,2024-04-28_11h35.34.981,ArchivoPrueba,2024.1.1,None,2024-04-28 11h35.44.751028 -0500,
None,27,orange,0,4,4,4,0,13,13,13,16.966440900000634,,,,,,,,,,,,,,,16.939280500000677,16.966440900000634,17.0387197,,,619168,001,2024-04-28_11h35.34.981,ArchivoPrueba,2024.1.1,None,2024-04-28 11h35.44.751028 -0500,
None,29,brown,0,4,4,4,0,14,14,14,17.05201770000076,,,,,,,,,,,,,,,17.039085100000193,17.05201770000076,17.13870280000083,,,619168,001,2024-04-28_11h35.34.981,ArchivoPrueba,2024.1.1,None,2024-04-28 11h35.44.751028 -0500,
None,31,purple,0,4,4,4,0,15,15,15,17.166234700000132,,,,,,,,,,,,,,,17.13905109999996,17.166234700000132,17.238449100000253,,,619168,001,2024-04-28_11h35.34.981,ArchivoPrueba,2024.1.1,None,2024-04-28 11h35.44.751028 -0500,
None,33,green,0,4,4,4,0,16,16,16,17.251955100000487,,,,,,,,,,,,,,,17.238745200000267,17.251955100000487,17.338489700000537,,,619168,001,2024-04-28_11h35.34.981,ArchivoPrueba,2024.1.1,None,2024-04-28 11h35.44.751028 -0500,
None,35,red,0,4,4,4,0,17,17,17,17.352055199999995,,,,,,,,,,,,,,,17.338788200000636,17.352055199999995,17.438483000000815,,,619168,001,2024-04-28_11h35.34.981,ArchivoPrueba,2024.1.1,None,2024-04-28 11h35.44.751028 -0500,
None,37,white,0,4,4,4,0,18,18,18,17.4519506000006,,,,,,,,,,,,,,,17.438778500000808,17.4519506000006,17.538344300000063,,,619168,001,2024-04-28_11h35.34.981,ArchivoPrueba,2024.1.1,None,2024-04-28 11h35.44.751028 -0500,
None,39,blue,0,4,4,4,0,19,19,19,17.551581500000793,,,,,,,,,,,,,,,17.538639200000034,17.551581500000793,17.638775300000816,,,619168,001,2024-04-28_11h35.34.981,ArchivoPrueba,2024.1.1,None,2024-04-28 11h35.44.751028 -0500,
" ¿Recuerda el recorrido desde la entrada de su lugar de trabajo hasta su oficina, donde realiza sus funciones?",9,yellow,0,4,4,4,,,,,,,,,,,,,,,,,,,,,,,,,619168,001,2024-04-28_11h35.34.981,ArchivoPrueba,2024.1.1,None,2024-04-28 11h35.44.751028 -0500,
¿Recuerda el recorrido que realiza desde su cama hasta la cocina de su residencia?,1,green,0,5,5,5,0,0,0,0,18.664909400000397,,,,,,,,,,,,17.639225500000066,17.66593080000075,18.637766000000738,18.647946300000513,18.664909400000397,18.737838800000645,,,619168,001,2024-04-28_11h35.34.981,ArchivoPrueba,2024.1.1,None,2024-04-28 11h35.44.751028 -0500,
¿Recuerda el trayecto que hace desde su casa hasta su lugar de trabajo?,3,red,0,5,5,5,0,1,1,1,18.764730600000803,,,,,,,,,,,,,,,18.73819260000073,18.764730600000803,18.83812240000043,,,619168,001,2024-04-28_11h35.34.981,ArchivoPrueba,2024.1.1,None,2024-04-28 11h35.44.751028 -0500,
¿Recuerda  algún inconveniente que ha  experimentado en el camino de su residencia a su lugar de trabajo?,5,white,0,5,5,5,0,2,2,2,18.864694800000507,,,,,,,,,,,,,,,18.838450500000363,18.864694800000507,18.93713640000078,,,619168,001,2024-04-28_11h35.34.981,ArchivoPrueba,2024.1.1,None,2024-04-28 11h35.44.751028 -0500,
¿Recuerda si hay algún lugar u objeto en su camino hacia el trabajo que le llame la atención?,7,blue,0,5,5,5,0,3,3,3,18.964769300000626,,,,,,,,,,,,,,,18.93745790000048,18.964769300000626,19.037556200000836,,,619168,001,2024-04-28_11h35.34.981,ArchivoPrueba,2024.1.1,None,2024-04-28 11h35.44.751028 -0500,
" ¿Recuerda el recorrido desde la entrada de su lugar de trabajo hasta su oficina, donde realiza sus funciones?",9,yellow,0,5,5,5,0,4,4,4,19.064623300000676,,,,,,,,,,,,,,,19.03782450000017,19.064623300000676,19.137246000000232,,,619168,001,2024-04-28_11h35.34.981,ArchivoPrueba,2024.1.1,None,2024-04-28 11h35.44.751028 -0500,
¿Recuerda alguna actividad que realice durante los viajes de regreso a casa desde el trabajo para relajarse?,11,orange,0,5,5,5,0,5,5,5,19.16471570000067,,,,,,,,,,,,,,,19.137536800000817,19.16471570000067,19.237234100000023,,,619168,001,2024-04-28_11h35.34.981,ArchivoPrueba,2024.1.1,None,2024-04-28 11h35.44.751028 -0500,
¿Recuerda el trayecto que realiza desde su casa hasta el lugar donde realiza sus compras?,13,brown,0,5,5,5,0,6,6,6,19.264541100000315,,,,,,,,,,,,,,,19.237505900000542,19.264541100000315,19.353411900000538,,,619168,001,2024-04-28_11h35.34.981,ArchivoPrueba,2024.1.1,None,2024-04-28 11h35.44.751028 -0500,
¿Recuerda alguna situación divertida o interesante que haya experimentado durante el recorrido hacia el lugar de compras?,15,purple,0,5,5,5,0,7,7,7,19.36679330000061,,,,,,,,,,,,,,,19.35372280000047,19.36679330000061,19.453860800000257,,,619168,001,2024-04-28_11h35.34.981,ArchivoPrueba,2024.1.1,None,2024-04-28 11h35.44.751028 -0500,
 ¿Recuerda qué es lo primero que ve al llegar al lugar donde realiza sus compras?,17,green,0,5,5,5,0,8,8,8,19.480775700000777,,,,,,,,,,,,,,,19.454211200000827,19.480775700000777,19.55344839999998,,,619168,001,2024-04-28_11h35.34.981,ArchivoPrueba,2024.1.1,None,2024-04-28 11h35.44.751028 -0500,
¿Recuerda el recorrido desde su residencia hasta el centro de resonancia magnética?,19,red,0,5,5,5,0,9,9,9,19.56687460000012,,,,,,,,,,,,,,,19.553722200000266,19.56687460000012,19.6537100000005,,,619168,001,2024-04-28_11h35.34.981,ArchivoPrueba,2024.1.1,None,2024-04-28 11h35.44.751028 -0500,
None,21,white,0,5,5,5,0,10,10,10,19.6806430000006,,,,,,,,,,,,,,,19.654028400000243,19.6806430000006,19.753698100000292,,,619168,001,2024-04-28_11h35.34.981,ArchivoPrueba,2024.1.1,None,2024-04-28 11h35.44.751028 -0500,
None,23,blue,0,5,5,5,0,11,11,11,19.78080080000018,,,,,,,,,,,,,,,19.75402430000031,19.78080080000018,19.853262300000097,,,619168,001,2024-04-28_11h35.34.981,ArchivoPrueba,2024.1.1,None,2024-04-28 11h35.44.751028 -0500,
None,25,yellow,0,5,5,5,0,12,12,12,19.880831300000864,,,,,,,,,,,,,,,19.853536300000087,19.880831300000864,19.953216500000053,,,619168,001,2024-04-28_11h35.34.981,ArchivoPrueba,2024.1.1,None,2024-04-28 11h35.44.751028 -0500,
None,27,orange,0,5,5,5,0,13,13,13,19.980585300000712,,,,,,,,,,,,,,,19.95348770000055,19.980585300000712,20.052849500000775,,,619168,001,2024-04-28_11h35.34.981,ArchivoPrueba,2024.1.1,None,2024-04-28 11h35.44.751028 -0500,
None,29,brown,0,5,5,5,0,14,14,14,20.066028500000357,,,,,,,,,,,,,,,20.053210100000797,20.066028500000357,20.136772000000747,,,619168,001,2024-04-28_11h35.34.981,ArchivoPrueba,2024.1.1,None,2024-04-28 11h35.44.751028 -0500,
None,31,purple,0,5,5,5,0,15,15,15,20.163463100000627,,,,,,,,,,,,,,,20.13711230000081,20.163463100000627,20.25240920000033,,,619168,001,2024-04-28_11h35.34.981,ArchivoPrueba,2024.1.1,None,2024-04-28 11h35.44.751028 -0500,
None,33,green,0,5,5,5,0,16,16,16,20.266185400000722,,,,,,,,,,,,,,,20.25268210000013,20.266185400000722,20.352406200000587,,,619168,001,2024-04-28_11h35.34.981,ArchivoPrueba,2024.1.1,None,2024-04-28 11h35.44.751028 -0500,
None,35,red,0,5,5,5,0,17,17,17,20.365991300000132,,,,,,,,,,,,,,,20.35270390000005,20.365991300000132,20.452709300000606,,,619168,001,2024-04-28_11h35.34.981,ArchivoPrueba,2024.1.1,None,2024-04-28 11h35.44.751028 -0500,
None,37,white,0,5,5,5,0,18,18,18,20.48002330000054,,,,,,,,,,,,,,,20.453362300000663,20.48002330000054,20.5524518000002,,,619168,001,2024-04-28_11h35.34.981,ArchivoPrueba,2024.1.1,None,2024-04-28 11h35.44.751028 -0500,
None,39,blue,0,5,5,5,0,19,19,19,20.565649300000587,,,,,,,,,,,,,,,20.552751900000658,20.565649300000587,20.652875600000698,,,619168,001,2024-04-28_11h35.34.981,ArchivoPrueba,2024.1.1,None,2024-04-28 11h35.44.751028 -0500,
¿Recuerda alguna actividad que realice durante los viajes de regreso a casa desde el trabajo para relajarse?,11,orange,0,5,5,5,,,,,,,,,,,,,,,,,,,,,,,,,619168,001,2024-04-28_11h35.34.981,ArchivoPrueba,2024.1.1,None,2024-04-28 11h35.44.751028 -0500,
¿Recuerda el recorrido que realiza desde su cama hasta la cocina de su residencia?,1,green,0,6,6,6,0,0,0,0,21.67895950000002,,,,,,,,,,,,20.65332490000037,20.680017700000462,21.651909700000033,21.662798100000145,21.67895950000002,21.751486500000283,,,619168,001,2024-04-28_11h35.34.981,ArchivoPrueba,2024.1.1,None,2024-04-28 11h35.44.751028 -0500,
¿Recuerda el trayecto que hace desde su casa hasta su lugar de trabajo?,3,red,0,6,6,6,0,1,1,1,21.764520900000207,,,,,,,,,,,,,,,21.75178390000019,21.764520900000207,21.851832400000603,,,619168,001,2024-04-28_11h35.34.981,ArchivoPrueba,2024.1.1,None,2024-04-28 11h35.44.751028 -0500,
¿Recuerda  algún inconveniente que ha  experimentado en el camino de su residencia a su lugar de trabajo?,5,white,0,6,6,6,0,2,2,2,21.878708000000188,,,,,,,,,,,,,,,21.852208400000563,21.878708000000188,21.951742000000195,,,619168,001,2024-04-28_11h35.34.981,ArchivoPrueba,2024.1.1,None,2024-04-28 11h35.44.751028 -0500,
¿Recuerda si hay algún lugar u objeto en su camino hacia el trabajo que le llame la atención?,7,blue,0,6,6,6,0,3,3,3,21.978845800000272,,,,,,,,,,,,,,,21.95208620000085,21.978845800000272,22.05159300000014,,,619168,001,2024-04-28_11h35.34.981,ArchivoPrueba,2024.1.1,None,2024-04-28 11h35.44.751028 -0500,
" ¿Recuerda el recorrido desde la entrada de su lugar de trabajo hasta su oficina, donde realiza sus funciones?",9,yellow,0,6,6,6,0,4,4,4,22.07848720000038,,,,,,,,,,,,,,,22.051900400000704,22.07848720000038,22.150908400000844,,,619168,001,2024-04-28_11h35.34.981,ArchivoPrueba,2024.1.1,None,2024-04-28 11h35.44.751028 -0500,
¿Recuerda alguna actividad que realice durante los viajes de regreso a casa desde el trabajo para relajarse?,11,orange,0,6,6,6,0,5,5,5,22.178652100000363,,,,,,,,,,,,,,,22.15129109999998,22.178652100000363,22.25148310000077,,,619168,001,2024-04-28_11h35.34.981,ArchivoPrueba,2024.1.1,None,2024-04-28 11h35.44.751028 -0500,
¿Recuerda el trayecto que realiza desde su casa hasta el lugar donde realiza sus compras?,13,brown,0,6,6,6,0,6,6,6,22.278379500000483,,,,,,,,,,,,,,,22.25175280000076,22.278379500000483,22.35076040000058,,,619168,001,2024-04-28_11h35.34.981,ArchivoPrueba,2024.1.1,None,2024-04-28 11h35.44.751028 -0500,
¿Recuerda alguna situación divertida o interesante que haya experimentado durante el recorrido hacia el lugar de compras?,15,purple,0,6,6,6,0,7,7,7,22.3640946000005,,,,,,,,,,,,,,,22.35113040000033,22.3640946000005,22.45068910000009,,,619168,001,2024-04-28_11h35.34.981,ArchivoPrueba,2024.1.1,None,2024-04-28 11h35.44.751028 -0500,
 ¿Recuerda qué es lo primero que ve al llegar al lugar donde realiza sus compras?,17,green,0,6,6,6,0,8,8,8,22.463921800000207,,,,,,,,,,,,,,,22.451042500000767,22.463921800000207,22.5506761000006,,,619168,001,2024-04-28_11h35.34.981,ArchivoPrueba,2024.1.1,None,2024-04-28 11h35.44.751028 -0500,
¿Recuerda el recorrido desde su residencia hasta el centro de resonancia magnética?,19,red,0,6,6,6,0,9,9,9,22.56391220000023,,,,,,,,,,,,,,,22.551018600000134,22.56391220000023,22.65052150000065,,,619168,001,2024-04-28_11h35.34.981,ArchivoPrueba,2024.1.1,None,2024-04-28 11h35.44.751028 -0500,
None,21,white,0,6,6,6,0,10,10,10,22.663921200000004,,,,,,,,,,,,,,,22.650819899999988,22.663921200000004,22.750435100000686,,,619168,001,2024-04-28_11h35.34.981,ArchivoPrueba,2024.1.1,None,2024-04-28 11h35.44.751028 -0500,
None,23,blue,0,6,6,6,0,11,11,11,22.77799640000012,,,,,,,,,,,,,,,22.75075780000043,22.77799640000012,22.85083460000078,,,619168,001,2024-04-28_11h35.34.981,ArchivoPrueba,2024.1.1,None,2024-04-28 11h35.44.751028 -0500,
None,25,yellow,0,6,6,6,0,12,12,12,22.87777460000052,,,,,,,,,,,,,,,22.851208300000508,22.87777460000052,22.9507878000004,,,619168,001,2024-04-28_11h35.34.981,ArchivoPrueba,2024.1.1,None,2024-04-28 11h35.44.751028 -0500,
None,27,orange,0,6,6,6,0,13,13,13,22.97777970000061,,,,,,,,,,,,,,,22.95116440000038,22.97777970000061,23.050724300000184,,,619168,001,2024-04-28_11h35.34.981,ArchivoPrueba,2024.1.1,None,2024-04-28 11h35.44.751028 -0500,
None,29,brown,0,6,6,6,0,14,14,14,23.077584300000126,,,,,,,,,,,,,,,23.051049800000328,23.077584300000126,23.150656900000286,,,619168,001,2024-04-28_11h35.34.981,ArchivoPrueba,2024.1.1,None,2024-04-28 11h35.44.751028 -0500,
None,31,purple,0,6,6,6,0,15,15,15,23.17770350000046,,,,,,,,,,,,,,,23.150979900000493,23.17770350000046,23.250716300000022,,,619168,001,2024-04-28_11h35.34.981,ArchivoPrueba,2024.1.1,None,2024-04-28 11h35.44.751028 -0500,
None,33,green,0,6,6,6,0,16,16,16,23.277714300000298,,,,,,,,,,,,,,,23.25104940000074,23.277714300000298,23.350073400000838,,,619168,001,2024-04-28_11h35.34.981,ArchivoPrueba,2024.1.1,None,2024-04-28 11h35.44.751028 -0500,
None,35,red,0,6,6,6,0,17,17,17,23.36319630000071,,,,,,,,,,,,,,,23.350384500000473,23.36319630000071,23.45026980000057,,,619168,001,2024-04-28_11h35.34.981,ArchivoPrueba,2024.1.1,None,2024-04-28 11h35.44.751028 -0500,
None,37,white,0,6,6,6,0,18,18,18,23.477355300000454,,,,,,,,,,,,,,,23.450538700000834,23.477355300000454,23.549982600000476,,,619168,001,2024-04-28_11h35.34.981,ArchivoPrueba,2024.1.1,None,2024-04-28 11h35.44.751028 -0500,
None,39,blue,0,6,6,6,0,19,19,19,23.577348100000563,,,,,,,,,,,,,,,23.55030540000007,23.577348100000563,23.649428000000626,,,619168,001,2024-04-28_11h35.34.981,ArchivoPrueba,2024.1.1,None,2024-04-28 11h35.44.751028 -0500,
¿Recuerda el trayecto que realiza desde su casa hasta el lugar donde realiza sus compras?,13,brown,0,6,6,6,,,,,,,,,,,,,,,,,,,,,,,,,619168,001,2024-04-28_11h35.34.981,ArchivoPrueba,2024.1.1,None,2024-04-28 11h35.44.751028 -0500,
¿Recuerda el recorrido que realiza desde su cama hasta la cocina de su residencia?,1,green,0,7,7,7,0,0,0,0,24.6764776,,,,,,,,,,,,23.64979510000012,23.677423400000407,24.64888229999997,24.658670600000733,24.6764776,24.74897830000009,,,619168,001,2024-04-28_11h35.34.981,ArchivoPrueba,2024.1.1,None,2024-04-28 11h35.44.751028 -0500,
¿Recuerda el trayecto que hace desde su casa hasta su lugar de trabajo?,3,red,0,7,7,7,0,1,1,1,24.776374600000054,,,,,,,,,,,,,,,24.74930730000051,24.776374600000054,24.848940300000322,,,619168,001,2024-04-28_11h35.34.981,ArchivoPrueba,2024.1.1,None,2024-04-28 11h35.44.751028 -0500,
¿Recuerda  algún inconveniente que ha  experimentado en el camino de su residencia a su lugar de trabajo?,5,white,0,7,7,7,0,2,2,2,24.877330000000256,,,,,,,,,,,,,,,24.849306200000683,24.877330000000256,24.94896779999999,,,619168,001,2024-04-28_11h35.34.981,ArchivoPrueba,2024.1.1,None,2024-04-28 11h35.44.751028 -0500,
¿Recuerda si hay algún lugar u objeto en su camino hacia el trabajo que le llame la atención?,7,blue,0,7,7,7,0,3,3,3,24.975919299999987,,,,,,,,,,,,,,,24.94924010000068,24.975919299999987,25.048396500000308,,,619168,001,2024-04-28_11h35.34.981,ArchivoPrueba,2024.1.1,None,2024-04-28 11h35.44.751028 -0500,
" ¿Recuerda el recorrido desde la entrada de su lugar de trabajo hasta su oficina, donde realiza sus funciones?",9,yellow,0,7,7,7,0,4,4,4,25.061695000000327,,,,,,,,,,,,,,,25.048774000000776,25.061695000000327,25.148530100000244,,,619168,001,2024-04-28_11h35.34.981,ArchivoPrueba,2024.1.1,None,2024-04-28 11h35.44.751028 -0500,
¿Recuerda alguna actividad que realice durante los viajes de regreso a casa desde el trabajo para relajarse?,11,orange,0,7,7,7,0,5,5,5,25.161494300000413,,,,,,,,,,,,,,,25.148866100000305,25.161494300000413,25.248133500000222,,,619168,001,2024-04-28_11h35.34.981,ArchivoPrueba,2024.1.1,None,2024-04-28 11h35.44.751028 -0500,
¿Recuerda el trayecto que realiza desde su casa hasta el lugar donde realiza sus compras?,13,brown,0,7,7,7,0,6,6,6,25.26150190000044,,,,,,,,,,,,,,,25.248430100000405,25.26150190000044,25.347825900000316,,,619168,001,2024-04-28_11h35.34.981,ArchivoPrueba,2024.1.1,None,2024-04-28 11h35.44.751028 -0500,
¿Recuerda alguna situación divertida o interesante que haya experimentado durante el recorrido hacia el lugar de compras?,15,purple,0,7,7,7,0,7,7,7,25.361424100000477,,,,,,,,,,,,,,,25.348118900000372,25.361424100000477,25.447871500000474,,,619168,001,2024-04-28_11h35.34.981,ArchivoPrueba,2024.1.1,None,2024-04-28 11h35.44.751028 -0500,
 ¿Recuerda qué es lo primero que ve al llegar al lugar donde realiza sus compras?,17,green,0,7,7,7,0,8,8,8,25.461255600000186,,,,,,,,,,,,,,,25.448167900000044,25.461255600000186,25.548658600000635,,,619168,001,2024-04-28_11h35.34.981,ArchivoPrueba,2024.1.1,None,2024-04-28 11h35.44.751028 -0500,
¿Recuerda el recorrido desde su residencia hasta el centro de resonancia magnética?,19,red,0,7,7,7,0,9,9,9,25.57536760000039,,,,,,,,,,,,,,,25.548934200000076,25.57536760000039,25.648384400000396,,,619168,001,2024-04-28_11h35.34.981,ArchivoPrueba,2024.1.1,None,2024-04-28 11h35.44.751028 -0500,
None,21,white,0,7,7,7,0,10,10,10,25.675321100000474,,,,,,,,,,,,,,,25.648739000000205,25.675321100000474,25.74812480000037,,,619168,001,2024-04-28_11h35.34.981,ArchivoPrueba,2024.1.1,None,2024-04-28 11h35.44.751028 -0500,
None,23,blue,0,7,7,7,0,11,11,11,25.761112700000012,,,,,,,,,,,,,,,25.748436400000173,25.761112700000012,25.848286200000075,,,619168,001,2024-04-28_11h35.34.981,ArchivoPrueba,2024.1.1,None,2024-04-28 11h35.44.751028 -0500,
None,25,yellow,0,7,7,7,0,12,12,12,25.8752441000006,,,,,,,,,,,,,,,25.848679700000503,25.8752441000006,25.94799410000087,,,619168,001,2024-04-28_11h35.34.981,ArchivoPrueba,2024.1.1,None,2024-04-28 11h35.44.751028 -0500,
None,27,orange,0,7,7,7,0,13,13,13,25.960794999999962,,,,,,,,,,,,,,,25.948293900000863,25.960794999999962,26.048114200000782,,,619168,001,2024-04-28_11h35.34.981,ArchivoPrueba,2024.1.1,None,2024-04-28 11h35.44.751028 -0500,
None,29,brown,0,7,7,7,0,14,14,14,26.074885700000777,,,,,,,,,,,,,,,26.048387400000138,26.074885700000777,26.147733300000255,,,619168,001,2024-04-28_11h35.34.981,ArchivoPrueba,2024.1.1,None,2024-04-28 11h35.44.751028 -0500,
None,31,purple,0,7,7,7,0,15,15,15,26.160796200000732,,,,,,,,,,,,,,,26.148021900000458,26.160796200000732,26.24751610000021,,,619168,001,2024-04-28_11h35.34.981,ArchivoPrueba,2024.1.1,None,2024-04-28 11h35.44.751028 -0500,
None,33,green,0,7,7,7,0,16,16,16,26.27478560000054,,,,,,,,,,,,,,,26.24785840000004,26.27478560000054,26.35032339999998,,,619168,001,2024-04-28_11h35.34.981,ArchivoPrueba,2024.1.1,None,2024-04-28 11h35.44.751028 -0500,
None,35,red,0,7,7,7,0,17,17,17,26.374895600000855,,,,,,,,,,,,,,,26.35091620000003,26.374895600000855,26.451211100000364,,,619168,001,2024-04-28_11h35.34.981,ArchivoPrueba,2024.1.1,None,2024-04-28 11h35.44.751028 -0500,
None,37,white,0,7,7,7,0,18,18,18,26.474915200000396,,,,,,,,,,,,,,,26.451749600000767,26.474915200000396,26.54716600000029,,,619168,001,2024-04-28_11h35.34.981,ArchivoPrueba,2024.1.1,None,2024-04-28 11h35.44.751028 -0500,
None,39,blue,0,7,7,7,0,19,19,19,26.574542600000314,,,,,,,,,,,,,,,26.547457399999985,26.574542600000314,26.64755370000057,,,619168,001,2024-04-28_11h35.34.981,ArchivoPrueba,2024.1.1,None,2024-04-28 11h35.44.751028 -0500,
¿Recuerda alguna situación divertida o interesante que haya experimentado durante el recorrido hacia el lugar de compras?,15,purple,0,7,7,7,,,,,,,,,,,,,,,,,,,,,,,,,619168,001,2024-04-28_11h35.34.981,ArchivoPrueba,2024.1.1,None,2024-04-28 11h35.44.751028 -0500,
¿Recuerda el recorrido que realiza desde su cama hasta la cocina de su residencia?,1,green,0,8,8,8,0,0,0,0,27.673650700000508,,,,,,,,,,,,26.648035600000185,26.672493600000053,27.6480401000008,27.657611800000268,27.673650700000508,27.74611360000017,,,619168,001,2024-04-28_11h35.34.981,ArchivoPrueba,2024.1.1,None,2024-04-28 11h35.44.751028 -0500,
¿Recuerda el trayecto que hace desde su casa hasta su lugar de trabajo?,3,red,0,8,8,8,0,1,1,1,27.77346200000011,,,,,,,,,,,,,,,27.74648640000032,27.77346200000011,27.84867210000084,,,619168,001,2024-04-28_11h35.34.981,ArchivoPrueba,2024.1.1,None,2024-04-28 11h35.44.751028 -0500,
¿Recuerda  algún inconveniente que ha  experimentado en el camino de su residencia a su lugar de trabajo?,5,white,0,8,8,8,0,2,2,2,27.87344950000079,,,,,,,,,,,,,,,27.84894550000081,27.87344950000079,27.94798350000019,,,619168,001,2024-04-28_11h35.34.981,ArchivoPrueba,2024.1.1,None,2024-04-28 11h35.44.751028 -0500,
¿Recuerda si hay algún lugar u objeto en su camino hacia el trabajo que le llame la atención?,7,blue,0,8,8,8,0,3,3,3,27.973582600000555,,,,,,,,,,,,,,,27.948254100000668,27.973582600000555,28.0459821000004,,,619168,001,2024-04-28_11h35.34.981,ArchivoPrueba,2024.1.1,None,2024-04-28 11h35.44.751028 -0500,
" ¿Recuerda el recorrido desde la entrada de su lugar de trabajo hasta su oficina, donde realiza sus funciones?",9,yellow,0,8,8,8,0,4,4,4,28.073278400000163,,,,,,,,,,,,,,,28.046253700000307,28.073278400000163,28.145618900000045,,,619168,001,2024-04-28_11h35.34.981,ArchivoPrueba,2024.1.1,None,2024-04-28 11h35.44.751028 -0500,
¿Recuerda alguna actividad que realice durante los viajes de regreso a casa desde el trabajo para relajarse?,11,orange,0,8,8,8,0,5,5,5,28.159153000000515,,,,,,,,,,,,,,,28.145925499999976,28.159153000000515,28.246168300000136,,,619168,001,2024-04-28_11h35.34.981,ArchivoPrueba,2024.1.1,None,2024-04-28 11h35.44.751028 -0500,
¿Recuerda el trayecto que realiza desde su casa hasta el lugar donde realiza sus compras?,13,brown,0,8,8,8,0,6,6,6,28.273450200000298,,,,,,,,,,,,,,,28.24645900000087,28.273450200000298,28.34559740000077,,,619168,001,2024-04-28_11h35.34.981,ArchivoPrueba,2024.1.1,None,2024-04-28 11h35.44.751028 -0500,
¿Recuerda alguna situación divertida o interesante que haya experimentado durante el recorrido hacia el lugar de compras?,15,purple,0,8,8,8,0,7,7,7,28.3588991000006,,,,,,,,,,,,,,,28.345893700000488,28.3588991000006,28.446283900000708,,,619168,001,2024-04-28_11h35.34.981,ArchivoPrueba,2024.1.1,None,2024-04-28 11h35.44.751028 -0500,
 ¿Recuerda qué es lo primero que ve al llegar al lugar donde realiza sus compras?,17,green,0,8,8,8,0,8,8,8,28.47290990000056,,,,,,,,,,,,,,,28.446657000000414,28.47290990000056,28.545563100000436,,,619168,001,2024-04-28_11h35.34.981,ArchivoPrueba,2024.1.1,None,2024-04-28 11h35.44.751028 -0500,
¿Recuerda el recorrido desde su residencia hasta el centro de resonancia magnética?,19,red,0,8,8,8,0,9,9,9,28.558537600000818,,,,,,,,,,,,,,,28.545834400000786,28.558537600000818,28.645521200000076,,,619168,001,2024-04-28_11h35.34.981,ArchivoPrueba,2024.1.1,None,2024-04-28 11h35.44.751028 -0500,
None,21,white,0,8,8,8,0,10,10,10,28.659525900000517,,,,,,,,,,,,,,,28.645795100000214,28.659525900000517,28.746590200000355,,,619168,001,2024-04-28_11h35.34.981,ArchivoPrueba,2024.1.1,None,2024-04-28 11h35.44.751028 -0500,
None,23,blue,0,8,8,8,0,11,11,11,28.772795400000177,,,,,,,,,,,,,,,28.746908100000837,28.772795400000177,28.84536560000015,,,619168,001,2024-04-28_11h35.34.981,ArchivoPrueba,2024.1.1,None,2024-04-28 11h35.44.751028 -0500,
None,25,yellow,0,8,8,8,0,12,12,12,28.858680400000594,,,,,,,,,,,,,,,28.845662900000207,28.858680400000594,28.944884900000034,,,619168,001,2024-04-28_11h35.34.981,ArchivoPrueba,2024.1.1,None,2024-04-28 11h35.44.751028 -0500,
None,27,orange,0,8,8,8,0,13,13,13,28.958340600000156,,,,,,,,,,,,,,,28.94526440000027,28.958340600000156,29.04523000000063,,,619168,001,2024-04-28_11h35.34.981,ArchivoPrueba,2024.1.1,None,2024-04-28 11h35.44.751028 -0500,
None,29,brown,0,8,8,8,0,14,14,14,29.072410700000546,,,,,,,,,,,,,,,29.045524699999987,29.072410700000546,29.14468560000023,,,619168,001,2024-04-28_11h35.34.981,ArchivoPrueba,2024.1.1,None,2024-04-28 11h35.44.751028 -0500,
None,31,purple,0,8,8,8,0,15,15,15,29.158206700000846,,,,,,,,,,,,,,,29.1449547000002,29.158206700000846,29.24471110000013,,,619168,001,2024-04-28_11h35.34.981,ArchivoPrueba,2024.1.1,None,2024-04-28 11h35.44.751028 -0500,
None,33,green,0,8,8,8,0,16,16,16,29.258194200000617,,,,,,,,,,,,,,,29.244994000000588,29.258194200000617,29.34462220000023,,,619168,001,2024-04-28_11h35.34.981,ArchivoPrueba,2024.1.1,None,2024-04-28 11h35.44.751028 -0500,
None,35,red,0,8,8,8,0,17,17,17,29.358085000000756,,,,,,,,,,,,,,,29.34490210000058,29.358085000000756,29.444639900000766,,,619168,001,2024-04-28_11h35.34.981,ArchivoPrueba,2024.1.1,None,2024-04-28 11h35.44.751028 -0500,
None,37,white,0,8,8,8,0,18,18,18,29.457531800000652,,,,,,,,,,,,,,,29.444934600000124,29.457531800000652,29.544981300000472,,,619168,001,2024-04-28_11h35.34.981,ArchivoPrueba,2024.1.1,None,2024-04-28 11h35.44.751028 -0500,
None,39,blue,0,8,8,8,0,19,19,19,29.571853200000078,,,,,,,,,,,,,,,29.54530480000085,29.571853200000078,29.64486770000076,,,619168,001,2024-04-28_11h35.34.981,ArchivoPrueba,2024.1.1,None,2024-04-28 11h35.44.751028 -0500,
 ¿Recuerda qué es lo primero que ve al llegar al lugar donde realiza sus compras?,17,green,0,8,8,8,,,,,,,,,,,,,,,,,,,,,,,,,619168,001,2024-04-28_11h35.34.981,ArchivoPrueba,2024.1.1,None,2024-04-28 11h35.44.751028 -0500,
¿Recuerda el recorrido que realiza desde su cama hasta la cocina de su residencia?,1,green,0,9,9,9,0,0,0,0,30.6709864000004,,,,,,,,,,,,29.645282500000576,29.671990000000733,30.643932900000436,30.65395620000072,30.6709864000004,30.743937300000653,,,619168,001,2024-04-28_11h35.34.981,ArchivoPrueba,2024.1.1,None,2024-04-28 11h35.44.751028 -0500,
¿Recuerda el trayecto que hace desde su casa hasta su lugar de trabajo?,3,red,0,9,9,9,0,1,1,1,30.756605900000068,,,,,,,,,,,,,,,30.74420950000058,30.756605900000068,30.8439343,,,619168,001,2024-04-28_11h35.34.981,ArchivoPrueba,2024.1.1,None,2024-04-28 11h35.44.751028 -0500,
¿Recuerda  algún inconveniente que ha  experimentado en el camino de su residencia a su lugar de trabajo?,5,white,0,9,9,9,0,2,2,2,30.870793300000514,,,,,,,,,,,,,,,30.84423390000029,30.870793300000514,30.943287400000372,,,619168,001,2024-04-28_11h35.34.981,ArchivoPrueba,2024.1.1,None,2024-04-28 11h35.44.751028 -0500,
¿Recuerda si hay algún lugar u objeto en su camino hacia el trabajo que le llame la atención?,7,blue,0,9,9,9,0,3,3,3,30.970882500000698,,,,,,,,,,,,,,,30.943648000000394,30.970882500000698,31.0436337000001,,,619168,001,2024-04-28_11h35.34.981,ArchivoPrueba,2024.1.1,None,2024-04-28 11h35.44.751028 -0500,
" ¿Recuerda el recorrido desde la entrada de su lugar de trabajo hasta su oficina, donde realiza sus funciones?",9,yellow,0,9,9,9,0,4,4,4,31.070722400000705,,,,,,,,,,,,,,,31.043905800000175,31.070722400000705,31.1438263,,,619168,001,2024-04-28_11h35.34.981,ArchivoPrueba,2024.1.1,None,2024-04-28 11h35.44.751028 -0500,
¿Recuerda alguna actividad que realice durante los viajes de regreso a casa desde el trabajo para relajarse?,11,orange,0,9,9,9,0,5,5,5,31.170530600000347,,,,,,,,,,,,,,,31.1441461000004,31.170530600000347,31.242704100000083,,,619168,001,2024-04-28_11h35.34.981,ArchivoPrueba,2024.1.1,None,2024-04-28 11h35.44.751028 -0500,
¿Recuerda el trayecto que realiza desde su casa hasta el lugar donde realiza sus compras?,13,brown,0,9,9,9,0,6,6,6,31.256244300000617,,,,,,,,,,,,,,,31.24298160000035,31.256244300000617,31.343075800000406,,,619168,001,2024-04-28_11h35.34.981,ArchivoPrueba,2024.1.1,None,2024-04-28 11h35.44.751028 -0500,
¿Recuerda alguna situación divertida o interesante que haya experimentado durante el recorrido hacia el lugar de compras?,15,purple,0,9,9,9,0,7,7,7,31.370437600000514,,,,,,,,,,,,,,,31.343432500000745,31.370437600000514,31.442894499999966,,,619168,001,2024-04-28_11h35.34.981,ArchivoPrueba,2024.1.1,None,2024-04-28 11h35.44.751028 -0500,
 ¿Recuerda qué es lo primero que ve al llegar al lugar donde realiza sus compras?,17,green,0,9,9,9,0,8,8,8,31.455912700000226,,,,,,,,,,,,,,,31.443185600000106,31.455912700000226,31.542679000000135,,,619168,001,2024-04-28_11h35.34.981,ArchivoPrueba,2024.1.1,None,2024-04-28 11h35.44.751028 -0500,
¿Recuerda el recorrido desde su residencia hasta el centro de resonancia magnética?,19,red,0,9,9,9,0,9,9,9,31.556178499999987,,,,,,,,,,,,,,,31.542966300000444,31.556178499999987,31.643227300000035,,,619168,001,2024-04-28_11h35.34.981,ArchivoPrueba,2024.1.1,None,2024-04-28 11h35.44.751028 -0500,
None,21,white,0,9,9,9,0,10,10,10,31.66997910000009,,,,,,,,,,,,,,,31.643585100000564,31.66997910000009,31.743022999999994,,,619168,001,2024-04-28_11h35.34.981,ArchivoPrueba,2024.1.1,None,2024-04-28 11h35.44.751028 -0500,
None,23,blue,0,9,9,9,0,11,11,11,31.77005740000004,,,,,,,,,,,,,,,31.74335610000071,31.77005740000004,31.843135000000075,,,619168,001,2024-04-28_11h35.34.981,ArchivoPrueba,2024.1.1,None,2024-04-28 11h35.44.751028 -0500,
None,25,yellow,0,9,9,9,0,12,12,12,31.869913800000177,,,,,,,,,,,,,,,31.843533300000672,31.869913800000177,31.942605100000037,,,619168,001,2024-04-28_11h35.34.981,ArchivoPrueba,2024.1.1,None,2024-04-28 11h35.44.751028 -0500,
None,27,orange,0,9,9,9,0,13,13,13,31.970095000000583,,,,,,,,,,,,,,,31.942876800000704,31.970095000000583,32.0429507000008,,,619168,001,2024-04-28_11h35.34.981,ArchivoPrueba,2024.1.1,None,2024-04-28 11h35.44.751028 -0500,
None,29,brown,0,9,9,9,0,14,14,14,32.06972360000054,,,,,,,,,,,,,,,32.04322370000045,32.06972360000054,32.14246710000043,,,619168,001,2024-04-28_11h35.34.981,ArchivoPrueba,2024.1.1,None,2024-04-28 11h35.44.751028 -0500,
None,31,purple,0,9,9,9,0,15,15,15,32.15534360000038,,,,,,,,,,,,,,,32.14278920000015,32.15534360000038,32.24250100000063,,,619168,001,2024-04-28_11h35.34.981,ArchivoPrueba,2024.1.1,None,2024-04-28 11h35.44.751028 -0500,
None,33,green,0,9,9,9,0,16,16,16,32.26962830000048,,,,,,,,,,,,,,,32.24282510000012,32.26962830000048,32.34212840000055,,,619168,001,2024-04-28_11h35.34.981,ArchivoPrueba,2024.1.1,None,2024-04-28 11h35.44.751028 -0500,
None,35,red,0,9,9,9,0,17,17,17,32.36953170000015,,,,,,,,,,,,,,,32.3425313000007,32.36953170000015,32.44177810000019,,,619168,001,2024-04-28_11h35.34.981,ArchivoPrueba,2024.1.1,None,2024-04-28 11h35.44.751028 -0500,
None,37,white,0,9,9,9,0,18,18,18,32.455228400000124,,,,,,,,,,,,,,,32.44205520000014,32.455228400000124,32.54167130000042,,,619168,001,2024-04-28_11h35.34.981,ArchivoPrueba,2024.1.1,None,2024-04-28 11h35.44.751028 -0500,
None,39,blue,0,9,9,9,0,19,19,19,32.5552017,,,,,,,,,,,,,,,32.54194350000034,32.5552017,32.642097200000535,,,619168,001,2024-04-28_11h35.34.981,ArchivoPrueba,2024.1.1,None,2024-04-28 11h35.44.751028 -0500,
¿Recuerda el recorrido desde su residencia hasta el centro de resonancia magnética?,19,red,0,9,9,9,,,,,,,,,,,,,,,,,,,,,,,,,619168,001,2024-04-28_11h35.34.981,ArchivoPrueba,2024.1.1,None,2024-04-28 11h35.44.751028 -0500,
¿Recuerda el recorrido que realiza desde su cama hasta la cocina de su residencia?,1,green,0,10,10,10,0,0,0,0,33.66847920000055,,,,,,,,,,,,32.642569400000866,32.669514700000036,33.64115550000042,33.65171640000062,33.66847920000055,33.74065640000026,,,619168,001,2024-04-28_11h35.34.981,ArchivoPrueba,2024.1.1,None,2024-04-28 11h35.44.751028 -0500,
¿Recuerda el trayecto que hace desde su casa hasta su lugar de trabajo?,3,red,0,10,10,10,0,1,1,1,33.75421160000042,,,,,,,,,,,,,,,33.74094940000032,33.75421160000042,33.84073690000059,,,619168,001,2024-04-28_11h35.34.981,ArchivoPrueba,2024.1.1,None,2024-04-28 11h35.44.751028 -0500,
¿Recuerda  algún inconveniente que ha  experimentado en el camino de su residencia a su lugar de trabajo?,5,white,0,10,10,10,0,2,2,2,33.85400580000078,,,,,,,,,,,,,,,33.8410571000004,33.85400580000078,33.94065230000069,,,619168,001,2024-04-28_11h35.34.981,ArchivoPrueba,2024.1.1,None,2024-04-28 11h35.44.751028 -0500,
¿Recuerda si hay algún lugar u objeto en su camino hacia el trabajo que le llame la atención?,7,blue,0,10,10,10,0,3,3,3,33.95423630000005,,,,,,,,,,,,,,,33.94098180000037,33.95423630000005,34.040651700000126,,,619168,001,2024-04-28_11h35.34.981,ArchivoPrueba,2024.1.1,None,2024-04-28 11h35.44.751028 -0500,
" ¿Recuerda el recorrido desde la entrada de su lugar de trabajo hasta su oficina, donde realiza sus funciones?",9,yellow,0,10,10,10,0,4,4,4,34.05361970000013,,,,,,,,,,,,,,,34.040998300000865,34.05361970000013,34.14106420000007,,,619168,001,2024-04-28_11h35.34.981,ArchivoPrueba,2024.1.1,None,2024-04-28 11h35.44.751028 -0500,
¿Recuerda alguna actividad que realice durante los viajes de regreso a casa desde el trabajo para relajarse?,11,orange,0,10,10,10,0,5,5,5,34.16798760000074,,,,,,,,,,,,,,,34.14133410000068,34.16798760000074,34.24035410000033,,,619168,001,2024-04-28_11h35.34.981,ArchivoPrueba,2024.1.1,None,2024-04-28 11h35.44.751028 -0500,
¿Recuerda el trayecto que realiza desde su casa hasta el lugar donde realiza sus compras?,13,brown,0,10,10,10,0,6,6,6,34.25356480000028,,,,,,,,,,,,,,,34.24068230000012,34.25356480000028,34.34041479999996,,,619168,001,2024-04-28_11h35.34.981,ArchivoPrueba,2024.1.1,None,2024-04-28 11h35.44.751028 -0500,
¿Recuerda alguna situación divertida o interesante que haya experimentado durante el recorrido hacia el lugar de compras?,15,purple,0,10,10,10,0,7,7,7,34.367773599999964,,,,,,,,,,,,,,,34.34078380000028,34.367773599999964,34.44070200000078,,,619168,001,2024-04-28_11h35.34.981,ArchivoPrueba,2024.1.1,None,2024-04-28 11h35.44.751028 -0500,
 ¿Recuerda qué es lo primero que ve al llegar al lugar donde realiza sus compras?,17,green,0,10,10,10,0,8,8,8,34.45351690000007,,,,,,,,,,,,,,,34.44100880000042,34.45351690000007,34.53993150000042,,,619168,001,2024-04-28_11h35.34.981,ArchivoPrueba,2024.1.1,None,2024-04-28 11h35.44.751028 -0500,
¿Recuerda el recorrido desde su residencia hasta el centro de resonancia magnética?,19,red,0,10,10,10,0,9,9,9,34.55366570000024,,,,,,,,,,,,,,,34.54020639999999,34.55366570000024,34.640476200000194,,,619168,001,2024-04-28_11h35.34.981,ArchivoPrueba,2024.1.1,None,2024-04-28 11h35.44.751028 -0500,
None,21,white,0,10,10,10,0,10,10,10,34.66751210000075,,,,,,,,,,,,,,,34.64082959999996,34.66751210000075,34.74044360000062,,,619168,001,2024-04-28_11h35.34.981,ArchivoPrueba,2024.1.1,None,2024-04-28 11h35.44.751028 -0500,
None,23,blue,0,10,10,10,0,11,11,11,34.76733080000031,,,,,,,,,,,,,,,34.74080160000085,34.76733080000031,34.8400087,,,619168,001,2024-04-28_11h35.34.981,ArchivoPrueba,2024.1.1,None,2024-04-28 11h35.44.751028 -0500,
None,25,yellow,0,10,10,10,0,12,12,12,34.85326670000086,,,,,,,,,,,,,,,34.84033190000082,34.85326670000086,34.94025899999997,,,619168,001,2024-04-28_11h35.34.981,ArchivoPrueba,2024.1.1,None,2024-04-28 11h35.44.751028 -0500,
None,27,orange,0,10,10,10,0,13,13,13,34.95292260000042,,,,,,,,,,,,,,,34.940529000000424,34.95292260000042,35.040551200000664,,,619168,001,2024-04-28_11h35.34.981,ArchivoPrueba,2024.1.1,None,2024-04-28 11h35.44.751028 -0500,
None,29,brown,0,10,10,10,0,14,14,14,35.067054400000416,,,,,,,,,,,,,,,35.040933700000096,35.067054400000416,35.14007850000053,,,619168,001,2024-04-28_11h35.34.981,ArchivoPrueba,2024.1.1,None,2024-04-28 11h35.44.751028 -0500,
None,31,purple,0,10,10,10,0,15,15,15,35.16735730000073,,,,,,,,,,,,,,,35.140373700000055,35.16735730000073,35.23979600000075,,,619168,001,2024-04-28_11h35.34.981,ArchivoPrueba,2024.1.1,None,2024-04-28 11h35.44.751028 -0500,
None,33,green,0,10,10,10,0,16,16,16,35.25264650000008,,,,,,,,,,,,,,,35.24009730000034,35.25264650000008,35.3396943000007,,,619168,001,2024-04-28_11h35.34.981,ArchivoPrueba,2024.1.1,None,2024-04-28 11h35.44.751028 -0500,
None,35,red,0,10,10,10,0,17,17,17,35.367211800000405,,,,,,,,,,,,,,,35.33998890000021,35.367211800000405,35.43929500000013,,,619168,001,2024-04-28_11h35.34.981,ArchivoPrueba,2024.1.1,None,2024-04-28 11h35.44.751028 -0500,
None,37,white,0,10,10,10,0,18,18,18,35.46686540000064,,,,,,,,,,,,,,,35.439573100000416,35.46686540000064,35.53909660000045,,,619168,001,2024-04-28_11h35.34.981,ArchivoPrueba,2024.1.1,None,2024-04-28 11h35.44.751028 -0500,
None,39,blue,0,10,10,10,0,19,19,19,35.552626800000326,,,,,,,,,,,,,,,35.53936420000082,35.552626800000326,35.639045400000214,,,619168,001,2024-04-28_11h35.34.981,ArchivoPrueba,2024.1.1,None,2024-04-28 11h35.44.751028 -0500,
None,21,white,0,10,10,10,,,,,,,,,,,,,,,,,,,,,,,,,619168,001,2024-04-28_11h35.34.981,ArchivoPrueba,2024.1.1,None,2024-04-28 11h35.44.751028 -0500,
¿Recuerda el recorrido que realiza desde su cama hasta la cocina de su residencia?,1,green,0,11,11,11,0,0,0,0,36.66577410000082,,,,,,,,,,,,35.6393994,35.66693960000066,36.638410500000646,36.64846350000062,36.66577410000082,36.73810810000032,,,619168,001,2024-04-28_11h35.34.981,ArchivoPrueba,2024.1.1,None,2024-04-28 11h35.44.751028 -0500,
¿Recuerda el trayecto que hace desde su casa hasta su lugar de trabajo?,3,red,0,11,11,11,0,1,1,1,36.75155360000008,,,,,,,,,,,,,,,36.73841220000031,36.75155360000008,36.83790920000047,,,619168,001,2024-04-28_11h35.34.981,ArchivoPrueba,2024.1.1,None,2024-04-28 11h35.44.751028 -0500,
¿Recuerda  algún inconveniente que ha  experimentado en el camino de su residencia a su lugar de trabajo?,5,white,0,11,11,11,0,2,2,2,36.85157960000015,,,,,,,,,,,,,,,36.838190000000395,36.85157960000015,36.93851600000016,,,619168,001,2024-04-28_11h35.34.981,ArchivoPrueba,2024.1.1,None,2024-04-28 11h35.44.751028 -0500,
¿Recuerda si hay algún lugar u objeto en su camino hacia el trabajo que le llame la atención?,7,blue,0,11,11,11,0,3,3,3,36.96548690000054,,,,,,,,,,,,,,,36.93888440000046,36.96548690000054,37.03800940000019,,,619168,001,2024-04-28_11h35.34.981,ArchivoPrueba,2024.1.1,None,2024-04-28 11h35.44.751028 -0500,
" ¿Recuerda el recorrido desde la entrada de su lugar de trabajo hasta su oficina, donde realiza sus funciones?",9,yellow,0,11,11,11,0,4,4,4,37.05111699999998,,,,,,,,,,,,,,,37.038304400000015,37.05111699999998,37.138655600000675,,,619168,001,2024-04-28_11h35.34.981,ArchivoPrueba,2024.1.1,None,2024-04-28 11h35.44.751028 -0500,
¿Recuerda alguna actividad que realice durante los viajes de regreso a casa desde el trabajo para relajarse?,11,orange,0,11,11,11,0,5,5,5,37.16510020000078,,,,,,,,,,,,,,,37.138956800000415,37.16510020000078,37.23830650000036,,,619168,001,2024-04-28_11h35.34.981,ArchivoPrueba,2024.1.1,None,2024-04-28 11h35.44.751028 -0500,
¿Recuerda el trayecto que realiza desde su casa hasta el lugar donde realiza sus compras?,13,brown,0,11,11,11,0,6,6,6,37.26525810000021,,,,,,,,,,,,,,,37.23857930000031,37.26525810000021,37.338417500000105,,,619168,001,2024-04-28_11h35.34.981,ArchivoPrueba,2024.1.1,None,2024-04-28 11h35.44.751028 -0500,
¿Recuerda alguna situación divertida o interesante que haya experimentado durante el recorrido hacia el lugar de compras?,15,purple,0,11,11,11,0,7,7,7,37.36505990000023,,,,,,,,,,,,,,,37.338809600000786,37.36505990000023,37.43812370000069,,,619168,001,2024-04-28_11h35.34.981,ArchivoPrueba,2024.1.1,None,2024-04-28 11h35.44.751028 -0500,
 ¿Recuerda qué es lo primero que ve al llegar al lugar donde realiza sus compras?,17,green,0,11,11,11,0,8,8,8,37.465187400000104,,,,,,,,,,,,,,,37.438481900000625,37.465187400000104,37.5375653000001,,,619168,001,2024-04-28_11h35.34.981,ArchivoPrueba,2024.1.1,None,2024-04-28 11h35.44.751028 -0500,
¿Recuerda el recorrido desde su residencia hasta el centro de resonancia magnética?,19,red,0,11,11,11,0,9,9,9,37.550563600000714,,,,,,,,,,,,,,,37.53795150000042,37.550563600000714,37.637590600000294,,,619168,001,2024-04-28_11h35.34.981,ArchivoPrueba,2024.1.1,None,2024-04-28 11h35.44.751028 -0500,
None,21,white,0,11,11,11,0,10,10,10,37.650556000000506,,,,,,,,,,,,,,,37.63803840000037,37.650556000000506,37.73725190000005,,,619168,001,2024-04-28_11h35.34.981,ArchivoPrueba,2024.1.1,None,2024-04-28 11h35.44.751028 -0500,
None,23,blue,0,11,11,11,0,11,11,11,37.75062640000033,,,,,,,,,,,,,,,37.73756290000074,37.75062640000033,37.83693240000048,,,619168,001,2024-04-28_11h35.34.981,ArchivoPrueba,2024.1.1,None,2024-04-28 11h35.44.751028 -0500,
None,25,yellow,0,11,11,11,0,12,12,12,37.85051080000085,,,,,,,,,,,,,,,37.837210500000765,37.85051080000085,37.93705769999997,,,619168,001,2024-04-28_11h35.34.981,ArchivoPrueba,2024.1.1,None,2024-04-28 11h35.44.751028 -0500,
None,27,orange,0,11,11,11,0,13,13,13,37.95063190000019,,,,,,,,,,,,,,,37.937377400000514,37.95063190000019,38.03729590000057,,,619168,001,2024-04-28_11h35.34.981,ArchivoPrueba,2024.1.1,None,2024-04-28 11h35.44.751028 -0500,
None,29,brown,0,11,11,11,0,14,14,14,38.064608800000315,,,,,,,,,,,,,,,38.03756450000037,38.064608800000315,38.13768010000058,,,619168,001,2024-04-28_11h35.34.981,ArchivoPrueba,2024.1.1,None,2024-04-28 11h35.44.751028 -0500,
None,31,purple,0,11,11,11,0,15,15,15,38.16458469999998,,,,,,,,,,,,,,,38.13804470000014,38.16458469999998,38.237518300000374,,,619168,001,2024-04-28_11h35.34.981,ArchivoPrueba,2024.1.1,None,2024-04-28 11h35.44.751028 -0500,
None,33,green,0,11,11,11,0,16,16,16,38.264515000000756,,,,,,,,,,,,,,,38.23779060000015,38.264515000000756,38.33716790000017,,,619168,001,2024-04-28_11h35.34.981,ArchivoPrueba,2024.1.1,None,2024-04-28 11h35.44.751028 -0500,
None,35,red,0,11,11,11,0,17,17,17,38.3644374000005,,,,,,,,,,,,,,,38.33746140000039,38.3644374000005,38.43737970000075,,,619168,001,2024-04-28_11h35.34.981,ArchivoPrueba,2024.1.1,None,2024-04-28 11h35.44.751028 -0500,
None,37,white,0,11,11,11,0,18,18,18,38.46434990000034,,,,,,,,,,,,,,,38.43766760000017,38.46434990000034,38.537092000000484,,,619168,001,2024-04-28_11h35.34.981,ArchivoPrueba,2024.1.1,None,2024-04-28 11h35.44.751028 -0500,
None,39,blue,0,11,11,11,0,19,19,19,38.56422790000033,,,,,,,,,,,,,,,38.53738110000086,38.56422790000033,38.65330870000071,,,619168,001,2024-04-28_11h35.34.981,ArchivoPrueba,2024.1.1,None,2024-04-28 11h35.44.751028 -0500,
None,23,blue,0,11,11,11,,,,,,,,,,,,,,,,,,,,,,,,,619168,001,2024-04-28_11h35.34.981,ArchivoPrueba,2024.1.1,None,2024-04-28 11h35.44.751028 -0500,
¿Recuerda el recorrido que realiza desde su cama hasta la cocina de su residencia?,1,green,0,12,12,12,0,0,0,0,39.67992940000022,,,,,,,,,,,,38.653704900000776,38.68103410000003,39.652905300000384,39.66291200000069,39.67992940000022,39.75292310000077,,,619168,001,2024-04-28_11h35.34.981,ArchivoPrueba,2024.1.1,None,2024-04-28 11h35.44.751028 -0500,
¿Recuerda el trayecto que hace desde su casa hasta su lugar de trabajo?,3,red,0,12,12,12,0,1,1,1,39.77989510000043,,,,,,,,,,,,,,,39.75327560000005,39.77989510000043,39.85241420000057,,,619168,001,2024-04-28_11h35.34.981,ArchivoPrueba,2024.1.1,None,2024-04-28 11h35.44.751028 -0500,
¿Recuerda  algún inconveniente que ha  experimentado en el camino de su residencia a su lugar de trabajo?,5,white,0,12,12,12,0,2,2,2,39.86544200000026,,,,,,,,,,,,,,,39.852684299999964,39.86544200000026,39.95262100000036,,,619168,001,2024-04-28_11h35.34.981,ArchivoPrueba,2024.1.1,None,2024-04-28 11h35.44.751028 -0500,
¿Recuerda si hay algún lugar u objeto en su camino hacia el trabajo que le llame la atención?,7,blue,0,12,12,12,0,3,3,3,39.979710100000375,,,,,,,,,,,,,,,39.95296410000083,39.979710100000375,40.052670100000796,,,619168,001,2024-04-28_11h35.34.981,ArchivoPrueba,2024.1.1,None,2024-04-28 11h35.44.751028 -0500,
" ¿Recuerda el recorrido desde la entrada de su lugar de trabajo hasta su oficina, donde realiza sus funciones?",9,yellow,0,12,12,12,0,4,4,4,40.079622300000665,,,,,,,,,,,,,,,40.05303240000012,40.079622300000665,40.152348900000106,,,619168,001,2024-04-28_11h35.34.981,ArchivoPrueba,2024.1.1,None,2024-04-28 11h35.44.751028 -0500,
¿Recuerda alguna actividad que realice durante los viajes de regreso a casa desde el trabajo para relajarse?,11,orange,0,12,12,12,0,5,5,5,40.179528100000425,,,,,,,,,,,,,,,40.152643700000226,40.179528100000425,40.252177100000154,,,619168,001,2024-04-28_11h35.34.981,ArchivoPrueba,2024.1.1,None,2024-04-28 11h35.44.751028 -0500,
¿Recuerda el trayecto que realiza desde su casa hasta el lugar donde realiza sus compras?,13,brown,0,12,12,12,0,6,6,6,40.265129100000195,,,,,,,,,,,,,,,40.25245300000006,40.265129100000195,40.35243460000038,,,619168,001,2024-04-28_11h35.34.981,ArchivoPrueba,2024.1.1,None,2024-04-28 11h35.44.751028 -0500,
¿Recuerda alguna situación divertida o interesante que haya experimentado durante el recorrido hacia el lugar de compras?,15,purple,0,12,12,12,0,7,7,7,40.379352500000095,,,,,,,,,,,,,,,40.35277230000065,40.379352500000095,40.451629300000604,,,619168,001,2024-04-28_11h35.34.981,ArchivoPrueba,2024.1.1,None,2024-04-28 11h35.44.751028 -0500,
 ¿Recuerda qué es lo primero que ve al llegar al lugar donde realiza sus compras?,17,green,0,12,12,12,0,8,8,8,40.46497310000086,,,,,,,,,,,,,,,40.45195590000003,40.46497310000086,40.55157720000079,,,619168,001,2024-04-28_11h35.34.981,ArchivoPrueba,2024.1.1,None,2024-04-28 11h35.44.751028 -0500,
¿Recuerda el recorrido desde su residencia hasta el centro de resonancia magnética?,19,red,0,12,12,12,0,9,9,9,40.579188600000634,,,,,,,,,,,,,,,40.55190980000043,40.579188600000634,40.65139429999999,,,619168,001,2024-04-28_11h35.34.981,ArchivoPrueba,2024.1.1,None,2024-04-28 11h35.44.751028 -0500,
None,21,white,0,12,12,12,0,10,10,10,40.664928000000145,,,,,,,,,,,,,,,40.6516859000003,40.664928000000145,40.7512942000003,,,619168,001,2024-04-28_11h35.34.981,ArchivoPrueba,2024.1.1,None,2024-04-28 11h35.44.751028 -0500,
None,23,blue,0,12,12,12,0,11,11,11,40.765065100000356,,,,,,,,,,,,,,,40.75160450000021,40.765065100000356,40.851373200000126,,,619168,001,2024-04-28_11h35.34.981,ArchivoPrueba,2024.1.1,None,2024-04-28 11h35.44.751028 -0500,
None,25,yellow,0,12,12,12,0,12,12,12,40.8646817000008,,,,,,,,,,,,,,,40.85166600000048,40.8646817000008,40.95182660000046,,,619168,001,2024-04-28_11h35.34.981,ArchivoPrueba,2024.1.1,None,2024-04-28 11h35.44.751028 -0500,
None,27,orange,0,12,12,12,0,13,13,13,40.9787182,,,,,,,,,,,,,,,40.95222280000053,40.9787182,41.05123670000012,,,619168,001,2024-04-28_11h35.34.981,ArchivoPrueba,2024.1.1,None,2024-04-28 11h35.44.751028 -0500,
None,29,brown,0,12,12,12,0,14,14,14,41.06434000000081,,,,,,,,,,,,,,,41.051536200000555,41.06434000000081,41.15159870000025,,,619168,001,2024-04-28_11h35.34.981,ArchivoPrueba,2024.1.1,None,2024-04-28 11h35.44.751028 -0500,
None,31,purple,0,12,12,12,0,15,15,15,41.178582200000164,,,,,,,,,,,,,,,41.15190000000075,41.178582200000164,41.251562400000694,,,619168,001,2024-04-28_11h35.34.981,ArchivoPrueba,2024.1.1,None,2024-04-28 11h35.44.751028 -0500,
None,33,green,0,12,12,12,0,16,16,16,41.27869929999997,,,,,,,,,,,,,,,41.25182910000058,41.27869929999997,41.35108280000077,,,619168,001,2024-04-28_11h35.34.981,ArchivoPrueba,2024.1.1,None,2024-04-28 11h35.44.751028 -0500,
None,35,red,0,12,12,12,0,17,17,17,41.36412570000084,,,,,,,,,,,,,,,41.35135600000012,41.36412570000084,41.45123580000018,,,619168,001,2024-04-28_11h35.34.981,ArchivoPrueba,2024.1.1,None,2024-04-28 11h35.44.751028 -0500,
None,37,white,0,12,12,12,0,18,18,18,41.47818950000055,,,,,,,,,,,,,,,41.45156450000013,41.47818950000055,41.55123580000054,,,619168,001,2024-04-28_11h35.34.981,ArchivoPrueba,2024.1.1,None,2024-04-28 11h35.44.751028 -0500,
None,39,blue,0,12,12,12,0,19,19,19,41.578149900000426,,,,,,,,,,,,,,,41.551554399999986,41.578149900000426,41.65062240000043,,,619168,001,2024-04-28_11h35.34.981,ArchivoPrueba,2024.1.1,None,2024-04-28 11h35.44.751028 -0500,
None,25,yellow,0,12,12,12,,,,,,,,,,,,,,,,,,,,,,,,,619168,001,2024-04-28_11h35.34.981,ArchivoPrueba,2024.1.1,None,2024-04-28 11h35.44.751028 -0500,
¿Recuerda el recorrido que realiza desde su cama hasta la cocina de su residencia?,1,green,0,13,13,13,0,0,0,0,42.67744710000079,,,,,,,,,,,,41.65101030000005,41.6781703000006,42.64980009999999,42.659612800000104,42.67744710000079,42.74949800000013,,,619168,001,2024-04-28_11h35.34.981,ArchivoPrueba,2024.1.1,None,2024-04-28 11h35.44.751028 -0500,
¿Recuerda el trayecto que hace desde su casa hasta su lugar de trabajo?,3,red,0,13,13,13,0,1,1,1,42.76295140000002,,,,,,,,,,,,,,,42.749775400000544,42.76295140000002,42.85005160000037,,,619168,001,2024-04-28_11h35.34.981,ArchivoPrueba,2024.1.1,None,2024-04-28 11h35.44.751028 -0500,
¿Recuerda  algún inconveniente que ha  experimentado en el camino de su residencia a su lugar de trabajo?,5,white,0,13,13,13,0,2,2,2,42.86255580000034,,,,,,,,,,,,,,,42.850390500000685,42.86255580000034,42.949707200000375,,,619168,001,2024-04-28_11h35.34.981,ArchivoPrueba,2024.1.1,None,2024-04-28 11h35.44.751028 -0500,
¿Recuerda si hay algún lugar u objeto en su camino hacia el trabajo que le llame la atención?,7,blue,0,13,13,13,0,3,3,3,42.962504200000694,,,,,,,,,,,,,,,42.949998200000664,42.962504200000694,43.0494206000003,,,619168,001,2024-04-28_11h35.34.981,ArchivoPrueba,2024.1.1,None,2024-04-28 11h35.44.751028 -0500,
" ¿Recuerda el recorrido desde la entrada de su lugar de trabajo hasta su oficina, donde realiza sus funciones?",9,yellow,0,13,13,13,0,4,4,4,43.06247920000078,,,,,,,,,,,,,,,43.049734200000785,43.06247920000078,43.14924500000052,,,619168,001,2024-04-28_11h35.34.981,ArchivoPrueba,2024.1.1,None,2024-04-28 11h35.44.751028 -0500,
¿Recuerda alguna actividad que realice durante los viajes de regreso a casa desde el trabajo para relajarse?,11,orange,0,13,13,13,0,5,5,5,43.16231810000045,,,,,,,,,,,,,,,43.14953970000079,43.16231810000045,43.249119000000064,,,619168,001,2024-04-28_11h35.34.981,ArchivoPrueba,2024.1.1,None,2024-04-28 11h35.44.751028 -0500,
¿Recuerda el trayecto que realiza desde su casa hasta el lugar donde realiza sus compras?,13,brown,0,13,13,13,0,6,6,6,43.27648190000036,,,,,,,,,,,,,,,43.24968880000051,43.27648190000036,43.35443310000028,,,619168,001,2024-04-28_11h35.34.981,ArchivoPrueba,2024.1.1,None,2024-04-28 11h35.44.751028 -0500,
¿Recuerda alguna situación divertida o interesante que haya experimentado durante el recorrido hacia el lugar de compras?,15,purple,0,13,13,13,0,7,7,7,43.37640530000044,,,,,,,,,,,,,,,43.3551307000007,43.37640530000044,43.45152870000038,,,619168,001,2024-04-28_11h35.34.981,ArchivoPrueba,2024.1.1,None,2024-04-28 11h35.44.751028 -0500,
 ¿Recuerda qué es lo primero que ve al llegar al lugar donde realiza sus compras?,17,green,0,13,13,13,0,8,8,8,43.47607170000083,,,,,,,,,,,,,,,43.4518592000004,43.47607170000083,43.54945240000052,,,619168,001,2024-04-28_11h35.34.981,ArchivoPrueba,2024.1.1,None,2024-04-28 11h35.44.751028 -0500,
¿Recuerda el recorrido desde su residencia hasta el centro de resonancia magnética?,19,red,0,13,13,13,0,9,9,9,43.57646410000052,,,,,,,,,,,,,,,43.549747500000194,43.57646410000052,43.64947690000008,,,619168,001,2024-04-28_11h35.34.981,ArchivoPrueba,2024.1.1,None,2024-04-28 11h35.44.751028 -0500,
None,21,white,0,13,13,13,0,10,10,10,43.6766245000008,,,,,,,,,,,,,,,43.64978289999999,43.6766245000008,43.764948100000765,,,619168,001,2024-04-28_11h35.34.981,ArchivoPrueba,2024.1.1,None,2024-04-28 11h35.44.751028 -0500,
None,23,blue,0,13,13,13,0,11,11,11,43.792829700000766,,,,,,,,,,,,,,,43.765474200000426,43.792829700000766,43.848604000000705,,,619168,001,2024-04-28_11h35.34.981,ArchivoPrueba,2024.1.1,None,2024-04-28 11h35.44.751028 -0500,
None,25,yellow,0,13,13,13,0,12,12,12,43.86196970000037,,,,,,,,,,,,,,,43.84892030000083,43.86196970000037,43.94987880000008,,,619168,001,2024-04-28_11h35.34.981,ArchivoPrueba,2024.1.1,None,2024-04-28 11h35.44.751028 -0500,
None,27,orange,0,13,13,13,0,13,13,13,43.97611970000071,,,,,,,,,,,,,,,43.95036400000026,43.97611970000071,44.048755300000266,,,619168,001,2024-04-28_11h35.34.981,ArchivoPrueba,2024.1.1,None,2024-04-28 11h35.44.751028 -0500,
None,29,brown,0,13,13,13,0,14,14,14,44.06142660000023,,,,,,,,,,,,,,,44.04904550000083,44.06142660000023,44.14907360000052,,,619168,001,2024-04-28_11h35.34.981,ArchivoPrueba,2024.1.1,None,2024-04-28 11h35.44.751028 -0500,
None,31,purple,0,13,13,13,0,15,15,15,44.1757731000007,,,,,,,,,,,,,,,44.1494560000001,44.1757731000007,44.24909810000008,,,619168,001,2024-04-28_11h35.34.981,ArchivoPrueba,2024.1.1,None,2024-04-28 11h35.44.751028 -0500,
None,33,green,0,13,13,13,0,16,16,16,44.27571480000006,,,,,,,,,,,,,,,44.249494500000765,44.27571480000006,44.34853629999998,,,619168,001,2024-04-28_11h35.34.981,ArchivoPrueba,2024.1.1,None,2024-04-28 11h35.44.751028 -0500,
None,35,red,0,13,13,13,0,17,17,17,44.375626700000794,,,,,,,,,,,,,,,44.3488068000006,44.375626700000794,44.44841059999999,,,619168,001,2024-04-28_11h35.34.981,ArchivoPrueba,2024.1.1,None,2024-04-28 11h35.44.751028 -0500,
None,37,white,0,13,13,13,0,18,18,18,44.46137590000035,,,,,,,,,,,,,,,44.44871290000083,44.46137590000035,44.54828020000059,,,619168,001,2024-04-28_11h35.34.981,ArchivoPrueba,2024.1.1,None,2024-04-28 11h35.44.751028 -0500,
None,39,blue,0,13,13,13,0,19,19,19,44.57563580000078,,,,,,,,,,,,,,,44.54860960000042,44.57563580000078,44.64812550000079,,,619168,001,2024-04-28_11h35.34.981,ArchivoPrueba,2024.1.1,None,2024-04-28 11h35.44.751028 -0500,
None,27,orange,0,13,13,13,,,,,,,,,,,,,,,,,,,,,,,,,619168,001,2024-04-28_11h35.34.981,ArchivoPrueba,2024.1.1,None,2024-04-28 11h35.44.751028 -0500,
¿Recuerda el recorrido que realiza desde su cama hasta la cocina de su residencia?,1,green,0,14,14,14,0,0,0,0,45.674701700000696,,,,,,,,,,,,44.64863360000072,44.67555540000012,45.64717780000046,45.656655700000556,45.674701700000696,45.74705979999999,,,619168,001,2024-04-28_11h35.34.981,ArchivoPrueba,2024.1.1,None,2024-04-28 11h35.44.751028 -0500,
¿Recuerda el trayecto que hace desde su casa hasta su lugar de trabajo?,3,red,0,14,14,14,0,1,1,1,45.76064860000042,,,,,,,,,,,,,,,45.74736200000007,45.76064860000042,45.84732930000064,,,619168,001,2024-04-28_11h35.34.981,ArchivoPrueba,2024.1.1,None,2024-04-28 11h35.44.751028 -0500,
¿Recuerda  algún inconveniente que ha  experimentado en el camino de su residencia a su lugar de trabajo?,5,white,0,14,14,14,0,2,2,2,45.87444470000082,,,,,,,,,,,,,,,45.847681600000215,45.87444470000082,45.94852780000019,,,619168,001,2024-04-28_11h35.34.981,ArchivoPrueba,2024.1.1,None,2024-04-28 11h35.44.751028 -0500,
¿Recuerda si hay algún lugar u objeto en su camino hacia el trabajo que le llame la atención?,7,blue,0,14,14,14,0,3,3,3,45.974426400000084,,,,,,,,,,,,,,,45.949033200000486,45.974426400000084,46.04718410000078,,,619168,001,2024-04-28_11h35.34.981,ArchivoPrueba,2024.1.1,None,2024-04-28 11h35.44.751028 -0500,
" ¿Recuerda el recorrido desde la entrada de su lugar de trabajo hasta su oficina, donde realiza sus funciones?",9,yellow,0,14,14,14,0,4,4,4,46.074462600000516,,,,,,,,,,,,,,,46.04747410000073,46.074462600000516,46.14989340000011,,,619168,001,2024-04-28_11h35.34.981,ArchivoPrueba,2024.1.1,None,2024-04-28 11h35.44.751028 -0500,
¿Recuerda alguna actividad que realice durante los viajes de regreso a casa desde el trabajo para relajarse?,11,orange,0,14,14,14,0,5,5,5,46.17437560000053,,,,,,,,,,,,,,,46.150220000000445,46.17437560000053,46.24708600000031,,,619168,001,2024-04-28_11h35.34.981,ArchivoPrueba,2024.1.1,None,2024-04-28 11h35.44.751028 -0500,
¿Recuerda el trayecto que realiza desde su casa hasta el lugar donde realiza sus compras?,13,brown,0,14,14,14,0,6,6,6,46.2743246,,,,,,,,,,,,,,,46.24735910000072,46.2743246,46.34738379999999,,,619168,001,2024-04-28_11h35.34.981,ArchivoPrueba,2024.1.1,None,2024-04-28 11h35.44.751028 -0500,
¿Recuerda alguna situación divertida o interesante que haya experimentado durante el recorrido hacia el lugar de compras?,15,purple,0,14,14,14,0,7,7,7,46.37397840000085,,,,,,,,,,,,,,,46.3476754000003,46.37397840000085,46.463093900000786,,,619168,001,2024-04-28_11h35.34.981,ArchivoPrueba,2024.1.1,None,2024-04-28 11h35.44.751028 -0500,
 ¿Recuerda qué es lo primero que ve al llegar al lugar donde realiza sus compras?,17,green,0,14,14,14,0,8,8,8,46.490274200000385,,,,,,,,,,,,,,,46.46372960000008,46.490274200000385,46.56061470000077,,,619168,001,2024-04-28_11h35.34.981,ArchivoPrueba,2024.1.1,None,2024-04-28 11h35.44.751028 -0500,
¿Recuerda el recorrido desde su residencia hasta el centro de resonancia magnética?,19,red,0,14,14,14,0,9,9,9,46.57616030000008,,,,,,,,,,,,,,,46.56099460000041,46.57616030000008,46.64647970000078,,,619168,001,2024-04-28_11h35.34.981,ArchivoPrueba,2024.1.1,None,2024-04-28 11h35.44.751028 -0500,
None,21,white,0,14,14,14,0,10,10,10,46.65981300000021,,,,,,,,,,,,,,,46.646744800000306,46.65981300000021,46.74685310000041,,,619168,001,2024-04-28_11h35.34.981,ArchivoPrueba,2024.1.1,None,2024-04-28 11h35.44.751028 -0500,
None,23,blue,0,14,14,14,0,11,11,11,46.77370180000071,,,,,,,,,,,,,,,46.747231600000305,46.77370180000071,46.84679570000026,,,619168,001,2024-04-28_11h35.34.981,ArchivoPrueba,2024.1.1,None,2024-04-28 11h35.44.751028 -0500,
None,25,yellow,0,14,14,14,0,12,12,12,46.87348220000058,,,,,,,,,,,,,,,46.84716810000009,46.87348220000058,46.94797330000074,,,619168,001,2024-04-28_11h35.34.981,ArchivoPrueba,2024.1.1,None,2024-04-28 11h35.44.751028 -0500,
None,27,orange,0,14,14,14,0,13,13,13,46.97368920000008,,,,,,,,,,,,,,,46.94832910000059,46.97368920000008,47.04749670000001,,,619168,001,2024-04-28_11h35.34.981,ArchivoPrueba,2024.1.1,None,2024-04-28 11h35.44.751028 -0500,
None,29,brown,0,14,14,14,0,14,14,14,47.07323290000022,,,,,,,,,,,,,,,47.04787740000029,47.07323290000022,47.14665150000019,,,619168,001,2024-04-28_11h35.34.981,ArchivoPrueba,2024.1.1,None,2024-04-28 11h35.44.751028 -0500,
None,31,purple,0,14,14,14,0,15,15,15,47.17344110000067,,,,,,,,,,,,,,,47.147040100000595,47.17344110000067,47.2460858000004,,,619168,001,2024-04-28_11h35.34.981,ArchivoPrueba,2024.1.1,None,2024-04-28 11h35.44.751028 -0500,
None,33,green,0,14,14,14,0,16,16,16,47.2731375000003,,,,,,,,,,,,,,,47.2467800000004,47.2731375000003,47.34741230000054,,,619168,001,2024-04-28_11h35.34.981,ArchivoPrueba,2024.1.1,None,2024-04-28 11h35.44.751028 -0500,
None,35,red,0,14,14,14,0,17,17,17,47.37290100000064,,,,,,,,,,,,,,,47.347752700000456,47.37290100000064,47.449033700000655,,,619168,001,2024-04-28_11h35.34.981,ArchivoPrueba,2024.1.1,None,2024-04-28 11h35.44.751028 -0500,
None,37,white,0,14,14,14,0,18,18,18,47.473909000000276,,,,,,,,,,,,,,,47.44937270000082,47.473909000000276,47.545563000000584,,,619168,001,2024-04-28_11h35.34.981,ArchivoPrueba,2024.1.1,None,2024-04-28 11h35.44.751028 -0500,
None,39,blue,0,14,14,14,0,19,19,19,47.558714700000564,,,,,,,,,,,,,,,47.54586780000045,47.558714700000564,47.645890800000416,,,619168,001,2024-04-28_11h35.34.981,ArchivoPrueba,2024.1.1,None,2024-04-28 11h35.44.751028 -0500,
None,29,brown,0,14,14,14,,,,,,,,,,,,,,,,,,,,,,,,,619168,001,2024-04-28_11h35.34.981,ArchivoPrueba,2024.1.1,None,2024-04-28 11h35.44.751028 -0500,
¿Recuerda el recorrido que realiza desde su cama hasta la cocina de su residencia?,1,green,0,15,15,15,0,0,0,0,48.67204390000006,,,,,,,,,,,,47.64633430000049,47.67316320000009,48.64499210000031,48.655056100000365,48.67204390000006,48.744721500000196,,,619168,001,2024-04-28_11h35.34.981,ArchivoPrueba,2024.1.1,None,2024-04-28 11h35.44.751028 -0500,
¿Recuerda el trayecto que hace desde su casa hasta su lugar de trabajo?,3,red,0,15,15,15,0,1,1,1,48.75775760000033,,,,,,,,,,,,,,,48.7450572000007,48.75775760000033,48.84484850000081,,,619168,001,2024-04-28_11h35.34.981,ArchivoPrueba,2024.1.1,None,2024-04-28 11h35.44.751028 -0500,
¿Recuerda  algún inconveniente que ha  experimentado en el camino de su residencia a su lugar de trabajo?,5,white,0,15,15,15,0,2,2,2,48.85767290000058,,,,,,,,,,,,,,,48.845144200000504,48.85767290000058,48.944593900000655,,,619168,001,2024-04-28_11h35.34.981,ArchivoPrueba,2024.1.1,None,2024-04-28 11h35.44.751028 -0500,
¿Recuerda si hay algún lugar u objeto en su camino hacia el trabajo que le llame la atención?,7,blue,0,15,15,15,0,3,3,3,48.97171950000029,,,,,,,,,,,,,,,48.944906900000205,48.97171950000029,49.04468740000084,,,619168,001,2024-04-28_11h35.34.981,ArchivoPrueba,2024.1.1,None,2024-04-28 11h35.44.751028 -0500,
" ¿Recuerda el recorrido desde la entrada de su lugar de trabajo hasta su oficina, donde realiza sus funciones?",9,yellow,0,15,15,15,0,4,4,4,49.07170490000044,,,,,,,,,,,,,,,49.04495880000013,49.07170490000044,49.14376630000061,,,619168,001,2024-04-28_11h35.34.981,ArchivoPrueba,2024.1.1,None,2024-04-28 11h35.44.751028 -0500,
¿Recuerda alguna actividad que realice durante los viajes de regreso a casa desde el trabajo para relajarse?,11,orange,0,15,15,15,0,5,5,5,49.15728290000061,,,,,,,,,,,,,,,49.14406230000077,49.15728290000061,49.24374740000076,,,619168,001,2024-04-28_11h35.34.981,ArchivoPrueba,2024.1.1,None,2024-04-28 11h35.44.751028 -0500,
¿Recuerda el trayecto que realiza desde su casa hasta el lugar donde realiza sus compras?,13,brown,0,15,15,15,0,6,6,6,49.25737410000056,,,,,,,,,,,,,,,49.24402040000041,49.25737410000056,49.344021100000646,,,619168,001,2024-04-28_11h35.34.981,ArchivoPrueba,2024.1.1,None,2024-04-28 11h35.44.751028 -0500,
¿Recuerda alguna situación divertida o interesante que haya experimentado durante el recorrido hacia el lugar de compras?,15,purple,0,15,15,15,0,7,7,7,49.35730190000049,,,,,,,,,,,,,,,49.34434230000079,49.35730190000049,49.4442652000007,,,619168,001,2024-04-28_11h35.34.981,ArchivoPrueba,2024.1.1,None,2024-04-28 11h35.44.751028 -0500,
 ¿Recuerda qué es lo primero que ve al llegar al lugar donde realiza sus compras?,17,green,0,15,15,15,0,8,8,8,49.47135630000048,,,,,,,,,,,,,,,49.44461890000002,49.47135630000048,49.54360070000075,,,619168,001,2024-04-28_11h35.34.981,ArchivoPrueba,2024.1.1,None,2024-04-28 11h35.44.751028 -0500,
¿Recuerda el recorrido desde su residencia hasta el centro de resonancia magnética?,19,red,0,15,15,15,0,9,9,9,49.55696690000059,,,,,,,,,,,,,,,49.54389810000066,49.55696690000059,49.64399870000034,,,619168,001,2024-04-28_11h35.34.981,ArchivoPrueba,2024.1.1,None,2024-04-28 11h35.44.751028 -0500,
None,21,white,0,15,15,15,0,10,10,10,49.67110430000048,,,,,,,,,,,,,,,49.64427210000031,49.67110430000048,49.74398890000066,,,619168,001,2024-04-28_11h35.34.981,ArchivoPrueba,2024.1.1,None,2024-04-28 11h35.44.751028 -0500,
None,23,blue,0,15,15,15,0,11,11,11,49.77117780000026,,,,,,,,,,,,,,,49.744257400000606,49.77117780000026,49.84357230000023,,,619168,001,2024-04-28_11h35.34.981,ArchivoPrueba,2024.1.1,None,2024-04-28 11h35.44.751028 -0500,
None,25,yellow,0,15,15,15,0,12,12,12,49.856582600000365,,,,,,,,,,,,,,,49.84396940000079,49.856582600000365,49.94346870000027,,,619168,001,2024-04-28_11h35.34.981,ArchivoPrueba,2024.1.1,None,2024-04-28 11h35.44.751028 -0500,
None,27,orange,0,15,15,15,0,13,13,13,49.97075530000075,,,,,,,,,,,,,,,49.94389130000036,49.97075530000075,50.04309260000082,,,619168,001,2024-04-28_11h35.34.981,ArchivoPrueba,2024.1.1,None,2024-04-28 11h35.44.751028 -0500,
None,29,brown,0,15,15,15,0,14,14,14,50.05657970000084,,,,,,,,,,,,,,,50.043390400000135,50.05657970000084,50.14294560000053,,,619168,001,2024-04-28_11h35.34.981,ArchivoPrueba,2024.1.1,None,2024-04-28 11h35.44.751028 -0500,
None,31,purple,0,15,15,15,0,15,15,15,50.15676380000059,,,,,,,,,,,,,,,50.14321940000082,50.15676380000059,50.24346670000068,,,619168,001,2024-04-28_11h35.34.981,ArchivoPrueba,2024.1.1,None,2024-04-28 11h35.44.751028 -0500,
None,33,green,0,15,15,15,0,16,16,16,50.25625830000081,,,,,,,,,,,,,,,50.243760100000145,50.25625830000081,50.34362650000003,,,619168,001,2024-04-28_11h35.34.981,ArchivoPrueba,2024.1.1,None,2024-04-28 11h35.44.751028 -0500,
None,35,red,0,15,15,15,0,17,17,17,50.37064850000024,,,,,,,,,,,,,,,50.343928600000254,50.37064850000024,50.4435026000001,,,619168,001,2024-04-28_11h35.34.981,ArchivoPrueba,2024.1.1,None,2024-04-28 11h35.44.751028 -0500,
None,37,white,0,15,15,15,0,18,18,18,50.470399000000725,,,,,,,,,,,,,,,50.44377210000039,50.470399000000725,50.54325180000069,,,619168,001,2024-04-28_11h35.34.981,ArchivoPrueba,2024.1.1,None,2024-04-28 11h35.44.751028 -0500,
None,39,blue,0,15,15,15,0,19,19,19,50.5704465000008,,,,,,,,,,,,,,,50.54352460000064,50.5704465000008,50.643176600000515,,,619168,001,2024-04-28_11h35.34.981,ArchivoPrueba,2024.1.1,None,2024-04-28 11h35.44.751028 -0500,
None,31,purple,0,15,15,15,,,,,,,,,,,,,,,,,,,,,,,,,619168,001,2024-04-28_11h35.34.981,ArchivoPrueba,2024.1.1,None,2024-04-28 11h35.44.751028 -0500,
¿Recuerda el recorrido que realiza desde su cama hasta la cocina de su residencia?,1,green,0,16,16,16,0,0,0,0,51.66938400000072,,,,,,,,,,,,50.64355780000005,50.67060460000084,51.64191520000077,51.65113450000081,51.66938400000072,51.74215960000038,,,619168,001,2024-04-28_11h35.34.981,ArchivoPrueba,2024.1.1,None,2024-04-28 11h35.44.751028 -0500,
¿Recuerda el trayecto que hace desde su casa hasta su lugar de trabajo?,3,red,0,16,16,16,0,1,1,1,51.769209000000046,,,,,,,,,,,,,,,51.74247379999997,51.769209000000046,51.84176340000067,,,619168,001,2024-04-28_11h35.34.981,ArchivoPrueba,2024.1.1,None,2024-04-28 11h35.44.751028 -0500,
¿Recuerda  algún inconveniente que ha  experimentado en el camino de su residencia a su lugar de trabajo?,5,white,0,16,16,16,0,2,2,2,51.85500040000079,,,,,,,,,,,,,,,51.84206070000073,51.85500040000079,51.94224850000046,,,619168,001,2024-04-28_11h35.34.981,ArchivoPrueba,2024.1.1,None,2024-04-28 11h35.44.751028 -0500,
¿Recuerda si hay algún lugar u objeto en su camino hacia el trabajo que le llame la atención?,7,blue,0,16,16,16,0,3,3,3,51.96892100000059,,,,,,,,,,,,,,,51.94255720000001,51.96892100000059,52.04212980000011,,,619168,001,2024-04-28_11h35.34.981,ArchivoPrueba,2024.1.1,None,2024-04-28 11h35.44.751028 -0500,
" ¿Recuerda el recorrido desde la entrada de su lugar de trabajo hasta su oficina, donde realiza sus funciones?",9,yellow,0,16,16,16,0,4,4,4,52.0692882000003,,,,,,,,,,,,,,,52.04257550000057,52.0692882000003,52.141437600000245,,,619168,001,2024-04-28_11h35.34.981,ArchivoPrueba,2024.1.1,None,2024-04-28 11h35.44.751028 -0500,
¿Recuerda alguna actividad que realice durante los viajes de regreso a casa desde el trabajo para relajarse?,11,orange,0,16,16,16,0,5,5,5,52.15441530000044,,,,,,,,,,,,,,,52.14184060000025,52.15441530000044,52.24149970000053,,,619168,001,2024-04-28_11h35.34.981,ArchivoPrueba,2024.1.1,None,2024-04-28 11h35.44.751028 -0500,
¿Recuerda el trayecto que realiza desde su casa hasta el lugar donde realiza sus compras?,13,brown,0,16,16,16,0,6,6,6,52.25451050000083,,,,,,,,,,,,,,,52.24185639999996,52.25451050000083,52.34135900000001,,,619168,001,2024-04-28_11h35.34.981,ArchivoPrueba,2024.1.1,None,2024-04-28 11h35.44.751028 -0500,
¿Recuerda alguna situación divertida o interesante que haya experimentado durante el recorrido hacia el lugar de compras?,15,purple,0,16,16,16,0,7,7,7,52.36880420000034,,,,,,,,,,,,,,,52.341736300000775,52.36880420000034,52.4412112,,,619168,001,2024-04-28_11h35.34.981,ArchivoPrueba,2024.1.1,None,2024-04-28 11h35.44.751028 -0500,
 ¿Recuerda qué es lo primero que ve al llegar al lugar donde realiza sus compras?,17,green,0,16,16,16,0,8,8,8,52.45440890000009,,,,,,,,,,,,,,,52.44157290000021,52.45440890000009,52.54092010000022,,,619168,001,2024-04-28_11h35.34.981,ArchivoPrueba,2024.1.1,None,2024-04-28 11h35.44.751028 -0500,
¿Recuerda el recorrido desde su residencia hasta el centro de resonancia magnética?,19,red,0,16,16,16,0,9,9,9,52.55428050000046,,,,,,,,,,,,,,,52.54121480000049,52.55428050000046,52.64083180000034,,,619168,001,2024-04-28_11h35.34.981,ArchivoPrueba,2024.1.1,None,2024-04-28 11h35.44.751028 -0500,
None,21,white,0,16,16,16,0,10,10,10,52.654410900000585,,,,,,,,,,,,,,,52.641104300000734,52.654410900000585,52.74083570000039,,,619168,001,2024-04-28_11h35.34.981,ArchivoPrueba,2024.1.1,None,2024-04-28 11h35.44.751028 -0500,
None,23,blue,0,16,16,16,0,11,11,11,52.75438910000048,,,,,,,,,,,,,,,52.74113280000074,52.75438910000048,52.84085219999997,,,619168,001,2024-04-28_11h35.34.981,ArchivoPrueba,2024.1.1,None,2024-04-28 11h35.44.751028 -0500,
None,25,yellow,0,16,16,16,0,12,12,12,52.854236400000445,,,,,,,,,,,,,,,52.84115390000079,52.854236400000445,52.94315110000025,,,619168,001,2024-04-28_11h35.34.981,ArchivoPrueba,2024.1.1,None,2024-04-28 11h35.44.751028 -0500,
None,27,orange,0,16,16,16,0,13,13,13,52.9682212000007,,,,,,,,,,,,,,,52.94357360000049,52.9682212000007,53.04156480000074,,,619168,001,2024-04-28_11h35.34.981,ArchivoPrueba,2024.1.1,None,2024-04-28 11h35.44.751028 -0500,
None,29,brown,0,16,16,16,0,14,14,14,53.068318600000566,,,,,,,,,,,,,,,53.041907800000445,53.068318600000566,53.141430100000434,,,619168,001,2024-04-28_11h35.34.981,ArchivoPrueba,2024.1.1,None,2024-04-28 11h35.44.751028 -0500,
None,31,purple,0,16,16,16,0,15,15,15,53.16797320000023,,,,,,,,,,,,,,,53.141813000000184,53.16797320000023,53.24161340000046,,,619168,001,2024-04-28_11h35.34.981,ArchivoPrueba,2024.1.1,None,2024-04-28 11h35.44.751028 -0500,
None,33,green,0,16,16,16,0,16,16,16,53.26954300000034,,,,,,,,,,,,,,,53.24188360000062,53.26954300000034,53.3415485000005,,,619168,001,2024-04-28_11h35.34.981,ArchivoPrueba,2024.1.1,None,2024-04-28 11h35.44.751028 -0500,
None,35,red,0,16,16,16,0,17,17,17,53.371581700000206,,,,,,,,,,,,,,,53.34185890000026,53.371581700000206,53.44119890000002,,,619168,001,2024-04-28_11h35.34.981,ArchivoPrueba,2024.1.1,None,2024-04-28 11h35.44.751028 -0500,
None,37,white,0,16,16,16,0,18,18,18,53.46805880000011,,,,,,,,,,,,,,,53.44159840000066,53.46805880000011,53.540941200000816,,,619168,001,2024-04-28_11h35.34.981,ArchivoPrueba,2024.1.1,None,2024-04-28 11h35.44.751028 -0500,
None,39,blue,0,16,16,16,0,19,19,19,53.56800790000034,,,,,,,,,,,,,,,53.541208100000404,53.56800790000034,53.64033230000041,,,619168,001,2024-04-28_11h35.34.981,ArchivoPrueba,2024.1.1,None,2024-04-28 11h35.44.751028 -0500,
None,33,green,0,16,16,16,,,,,,,,,,,,,,,,,,,,,,,,,619168,001,2024-04-28_11h35.34.981,ArchivoPrueba,2024.1.1,None,2024-04-28 11h35.44.751028 -0500,
¿Recuerda el recorrido que realiza desde su cama hasta la cocina de su residencia?,1,green,0,17,17,17,0,0,0,0,54.6825060000001,,,,,,,,,,,,53.64072230000056,53.66778240000076,54.65273490000072,54.661750200000824,54.6825060000001,54.75286330000017,,,619168,001,2024-04-28_11h35.34.981,ArchivoPrueba,2024.1.1,None,2024-04-28 11h35.44.751028 -0500,
¿Recuerda el trayecto que hace desde su casa hasta su lugar de trabajo?,3,red,0,17,17,17,0,1,1,1,54.76582890000009,,,,,,,,,,,,,,,54.75314000000071,54.76582890000009,54.85219610000058,,,619168,001,2024-04-28_11h35.34.981,ArchivoPrueba,2024.1.1,None,2024-04-28 11h35.44.751028 -0500,
¿Recuerda  algún inconveniente que ha  experimentado en el camino de su residencia a su lugar de trabajo?,5,white,0,17,17,17,0,2,2,2,54.86567700000069,,,,,,,,,,,,,,,54.85249990000011,54.86567700000069,54.95227280000017,,,619168,001,2024-04-28_11h35.34.981,ArchivoPrueba,2024.1.1,None,2024-04-28 11h35.44.751028 -0500,
¿Recuerda si hay algún lugar u objeto en su camino hacia el trabajo que le llame la atención?,7,blue,0,17,17,17,0,3,3,3,54.96561930000007,,,,,,,,,,,,,,,54.95269040000039,54.96561930000007,55.052514700000756,,,619168,001,2024-04-28_11h35.34.981,ArchivoPrueba,2024.1.1,None,2024-04-28 11h35.44.751028 -0500,
" ¿Recuerda el recorrido desde la entrada de su lugar de trabajo hasta su oficina, donde realiza sus funciones?",9,yellow,0,17,17,17,0,4,4,4,55.065388100000746,,,,,,,,,,,,,,,55.05284130000018,55.065388100000746,55.152172100000826,,,619168,001,2024-04-28_11h35.34.981,ArchivoPrueba,2024.1.1,None,2024-04-28 11h35.44.751028 -0500,
¿Recuerda alguna actividad que realice durante los viajes de regreso a casa desde el trabajo para relajarse?,11,orange,0,17,17,17,0,5,5,5,55.16541150000012,,,,,,,,,,,,,,,55.15247720000025,55.16541150000012,55.252192700000705,,,619168,001,2024-04-28_11h35.34.981,ArchivoPrueba,2024.1.1,None,2024-04-28 11h35.44.751028 -0500,
¿Recuerda el trayecto que realiza desde su casa hasta el lugar donde realiza sus compras?,13,brown,0,17,17,17,0,6,6,6,55.26532950000001,,,,,,,,,,,,,,,55.252572900000814,55.26532950000001,55.351930800000446,,,619168,001,2024-04-28_11h35.34.981,ArchivoPrueba,2024.1.1,None,2024-04-28 11h35.44.751028 -0500,
¿Recuerda alguna situación divertida o interesante que haya experimentado durante el recorrido hacia el lugar de compras?,15,purple,0,17,17,17,0,7,7,7,55.36521990000074,,,,,,,,,,,,,,,55.35222210000029,55.36521990000074,55.45185030000084,,,619168,001,2024-04-28_11h35.34.981,ArchivoPrueba,2024.1.1,None,2024-04-28 11h35.44.751028 -0500,
 ¿Recuerda qué es lo primero que ve al llegar al lugar donde realiza sus compras?,17,green,0,17,17,17,0,8,8,8,55.4651515000005,,,,,,,,,,,,,,,55.45213910000075,55.4651515000005,55.55189580000024,,,619168,001,2024-04-28_11h35.34.981,ArchivoPrueba,2024.1.1,None,2024-04-28 11h35.44.751028 -0500,
¿Recuerda el recorrido desde su residencia hasta el centro de resonancia magnética?,19,red,0,17,17,17,0,9,9,9,55.565168500000254,,,,,,,,,,,,,,,55.55218230000082,55.565168500000254,55.651780099999996,,,619168,001,2024-04-28_11h35.34.981,ArchivoPrueba,2024.1.1,None,2024-04-28 11h35.44.751028 -0500,
None,21,white,0,17,17,17,0,10,10,10,55.66520960000071,,,,,,,,,,,,,,,55.65208359999997,55.66520960000071,55.751901000000544,,,619168,001,2024-04-28_11h35.34.981,ArchivoPrueba,2024.1.1,None,2024-04-28 11h35.44.751028 -0500,
None,23,blue,0,17,17,17,0,11,11,11,55.76500830000077,,,,,,,,,,,,,,,55.75216960000034,55.76500830000077,55.851631200000156,,,619168,001,2024-04-28_11h35.34.981,ArchivoPrueba,2024.1.1,None,2024-04-28 11h35.44.751028 -0500,
None,25,yellow,0,17,17,17,0,12,12,12,55.86499880000065,,,,,,,,,,,,,,,55.851941400000214,55.86499880000065,55.95174829999996,,,619168,001,2024-04-28_11h35.34.981,ArchivoPrueba,2024.1.1,None,2024-04-28 11h35.44.751028 -0500,
None,27,orange,0,17,17,17,0,13,13,13,55.96485130000019,,,,,,,,,,,,,,,55.95206180000059,55.96485130000019,56.051856100000805,,,619168,001,2024-04-28_11h35.34.981,ArchivoPrueba,2024.1.1,None,2024-04-28 11h35.44.751028 -0500,
None,29,brown,0,17,17,17,0,14,14,14,56.06475750000027,,,,,,,,,,,,,,,56.052126300000054,56.06475750000027,56.1517771000008,,,619168,001,2024-04-28_11h35.34.981,ArchivoPrueba,2024.1.1,None,2024-04-28 11h35.44.751028 -0500,
None,31,purple,0,17,17,17,0,15,15,15,56.16462290000072,,,,,,,,,,,,,,,56.152046500000324,56.16462290000072,56.25155840000025,,,619168,001,2024-04-28_11h35.34.981,ArchivoPrueba,2024.1.1,None,2024-04-28 11h35.44.751028 -0500,
None,33,green,0,17,17,17,0,16,16,16,56.264345100000355,,,,,,,,,,,,,,,56.25191790000008,56.264345100000355,56.35114229999999,,,619168,001,2024-04-28_11h35.34.981,ArchivoPrueba,2024.1.1,None,2024-04-28 11h35.44.751028 -0500,
None,35,red,0,17,17,17,0,17,17,17,56.3643976000003,,,,,,,,,,,,,,,56.35149420000016,56.3643976000003,56.43683580000015,,,619168,001,2024-04-28_11h35.34.981,ArchivoPrueba,2024.1.1,None,2024-04-28 11h35.44.751028 -0500,
None,37,white,0,17,17,17,0,18,18,18,56.44761490000019,,,,,,,,,,,,,,,56.43715300000076,56.44761490000019,56.53513960000055,56.54777960000047,,619168,001,2024-04-28_11h35.34.981,ArchivoPrueba,2024.1.1,None,2024-04-28 11h35.44.751028 -0500,
