PreguntaOff,PreguntaOn,Colors,Prueba.thisRepN,Prueba.thisTrialN,Prueba.thisN,Prueba.thisIndex,RepeticionOn.thisRepN,RepeticionOn.thisTrialN,RepeticionOn.thisN,RepeticionOn.thisIndex,thisRow.t,notes,introducción_3.started,introducción.started,mouse.started,introducción_3.stopped,mouse.x,mouse.y,mouse.leftButton,mouse.midButton,mouse.rightButton,mouse.time,Off.started,CondicionOff.started,Off.stopped,On.started,CondicionOn.started,On.stopped,participant,session,date,expName,psychopyVersion,frameRate,expStart,
,,,,,,,,,,,,,0.028254099999685423,0.05028370000036375,0.027936799999224604,1.0650014999991981,[-0.23958333333333334],[0.17708333333333334],[1],[0],[0],[1.0358295000005455],,,,,,,773583,001,2024-04-28_12h19.59.154,ArchivoPrueba,2024.1.1,None,2024-04-28 12h20.09.224697 -0500,
¿Recuerda el recorrido que realiza desde su cama hasta la cocina de su residencia?,1,green,0,0,0,0,0,0,0,0,2.104067099999156,,,,,,,,,,,,1.0774954999997135,1.105718299999353,2.079321600000185,2.089471199999025,2.104067099999156,2.1787160000003496,773583,001,2024-04-28_12h19.59.154,ArchivoPrueba,2024.1.1,None,2024-04-28 12h20.09.224697 -0500,
¿Recuerda el trayecto que hace desde su casa hasta su lugar de trabajo?,3,red,0,0,0,0,0,1,1,1,2.2042897999999695,,,,,,,,,,,,,,,2.1790533999992476,2.2042897999999695,2.278991999999562,773583,001,2024-04-28_12h19.59.154,ArchivoPrueba,2024.1.1,None,2024-04-28 12h20.09.224697 -0500,
¿Recuerda  algún inconveniente que ha  experimentado en el camino de su residencia a su lugar de trabajo?,5,white,0,0,0,0,0,2,2,2,2.3039043999997375,,,,,,,,,,,,,,,2.279290599999513,2.3039043999997375,2.3793745999992097,773583,001,2024-04-28_12h19.59.154,ArchivoPrueba,2024.1.1,None,2024-04-28 12h20.09.224697 -0500,
¿Recuerda si hay algún lugar u objeto en su camino hacia el trabajo que le llame la atención?,7,blue,0,0,0,0,0,3,3,3,2.4040267000000313,,,,,,,,,,,,,,,2.379711800000223,2.4040267000000313,2.4759300999994593,773583,001,2024-04-28_12h19.59.154,ArchivoPrueba,2024.1.1,None,2024-04-28 12h20.09.224697 -0500,
" ¿Recuerda el recorrido desde la entrada de su lugar de trabajo hasta su oficina, donde realiza sus funciones?",9,yellow,0,0,0,0,0,4,4,4,2.503630900000644,,,,,,,,,,,,,,,2.47620839999945,2.503630900000644,2.5787215000000288,773583,001,2024-04-28_12h19.59.154,ArchivoPrueba,2024.1.1,None,2024-04-28 12h20.09.224697 -0500,
¿Recuerda alguna actividad que realice durante los viajes de regreso a casa desde el trabajo para relajarse?,11,orange,0,0,0,0,0,5,5,5,2.605589799999507,,,,,,,,,,,,,,,2.5790501999999833,2.605589799999507,2.6785263999991002,773583,001,2024-04-28_12h19.59.154,ArchivoPrueba,2024.1.1,None,2024-04-28 12h20.09.224697 -0500,
¿Recuerda el trayecto que realiza desde su casa hasta el lugar donde realiza sus compras?,13,brown,0,0,0,0,0,6,6,6,2.705401499999425,,,,,,,,,,,,,,,2.6789353000003757,2.705401499999425,2.780386799999178,773583,001,2024-04-28_12h19.59.154,ArchivoPrueba,2024.1.1,None,2024-04-28 12h20.09.224697 -0500,
¿Recuerda alguna situación divertida o interesante que haya experimentado durante el recorrido hacia el lugar de compras?,15,purple,0,0,0,0,0,7,7,7,2.8058440999993763,,,,,,,,,,,,,,,2.7807412999991357,2.8058440999993763,2.878145799999402,773583,001,2024-04-28_12h19.59.154,ArchivoPrueba,2024.1.1,None,2024-04-28 12h20.09.224697 -0500,
 ¿Recuerda qué es lo primero que ve al llegar al lugar donde realiza sus compras?,17,green,0,0,0,0,0,8,8,8,2.905299300000479,,,,,,,,,,,,,,,2.8784605999990163,2.905299300000479,2.9783420999992813,773583,001,2024-04-28_12h19.59.154,ArchivoPrueba,2024.1.1,None,2024-04-28 12h20.09.224697 -0500,
¿Recuerda el recorrido desde su residencia hasta el centro de resonancia magnética?,19,red,0,0,0,0,0,9,9,9,3.0051889999995183,,,,,,,,,,,,,,,2.978632700000162,3.0051889999995183,3.0779904999999417,773583,001,2024-04-28_12h19.59.154,ArchivoPrueba,2024.1.1,None,2024-04-28 12h20.09.224697 -0500,
None,21,white,0,0,0,0,0,10,10,10,3.103570999999647,,,,,,,,,,,,,,,3.0782696999995096,3.103570999999647,3.1785414000005403,773583,001,2024-04-28_12h19.59.154,ArchivoPrueba,2024.1.1,None,2024-04-28 12h20.09.224697 -0500,
None,23,blue,0,0,0,0,0,11,11,11,3.204691200000525,,,,,,,,,,,,,,,3.1788856999992277,3.204691200000525,3.27837080000063,773583,001,2024-04-28_12h19.59.154,ArchivoPrueba,2024.1.1,None,2024-04-28 12h20.09.224697 -0500,
None,25,yellow,0,0,0,0,0,12,12,12,3.304852799999935,,,,,,,,,,,,,,,3.278643399999055,3.304852799999935,3.3781748000001244,773583,001,2024-04-28_12h19.59.154,ArchivoPrueba,2024.1.1,None,2024-04-28 12h20.09.224697 -0500,
None,27,orange,0,0,0,0,0,13,13,13,3.404798199999277,,,,,,,,,,,,,,,3.378480400000626,3.404798199999277,3.478090799999336,773583,001,2024-04-28_12h19.59.154,ArchivoPrueba,2024.1.1,None,2024-04-28 12h20.09.224697 -0500,
None,29,brown,0,0,0,0,0,14,14,14,3.504944300000716,,,,,,,,,,,,,,,3.4784058000004734,3.504944300000716,3.5778186000006826,773583,001,2024-04-28_12h19.59.154,ArchivoPrueba,2024.1.1,None,2024-04-28 12h20.09.224697 -0500,
None,31,purple,0,0,0,0,0,15,15,15,3.60484919999908,,,,,,,,,,,,,,,3.578160900000512,3.60484919999908,3.6773164000005636,773583,001,2024-04-28_12h19.59.154,ArchivoPrueba,2024.1.1,None,2024-04-28 12h20.09.224697 -0500,
None,33,green,0,0,0,0,0,16,16,16,3.7046374999990803,,,,,,,,,,,,,,,3.6775889999989886,3.7046374999990803,3.7775552999992215,773583,001,2024-04-28_12h19.59.154,ArchivoPrueba,2024.1.1,None,2024-04-28 12h20.09.224697 -0500,
None,35,red,0,0,0,0,0,17,17,17,3.804185499999221,,,,,,,,,,,,,,,3.7778551999999763,3.804185499999221,3.877329799999643,773583,001,2024-04-28_12h19.59.154,ArchivoPrueba,2024.1.1,None,2024-04-28 12h20.09.224697 -0500,
None,37,white,0,0,0,0,0,18,18,18,3.904449300000124,,,,,,,,,,,,,,,3.877614499999254,3.904449300000124,3.9772812999999587,773583,001,2024-04-28_12h19.59.154,ArchivoPrueba,2024.1.1,None,2024-04-28 12h20.09.224697 -0500,
None,39,blue,0,0,0,0,0,19,19,19,4.0043459000007715,,,,,,,,,,,,,,,3.9776067999991938,4.0043459000007715,4.077656499999648,773583,001,2024-04-28_12h19.59.154,ArchivoPrueba,2024.1.1,None,2024-04-28 12h20.09.224697 -0500,
¿Recuerda el recorrido que realiza desde su cama hasta la cocina de su residencia?,1,green,0,0,0,0,,,,,,,,,,,,,,,,,,,,,,,773583,001,2024-04-28_12h19.59.154,ArchivoPrueba,2024.1.1,None,2024-04-28 12h20.09.224697 -0500,
¿Recuerda el recorrido que realiza desde su cama hasta la cocina de su residencia?,1,green,0,1,1,1,0,0,0,0,5.103251599999567,,,,,,,,,,,,4.078070999999909,4.102491199999349,5.076462700000775,5.087429900000643,5.103251599999567,5.176342299999305,773583,001,2024-04-28_12h19.59.154,ArchivoPrueba,2024.1.1,None,2024-04-28 12h20.09.224697 -0500,
¿Recuerda el trayecto que hace desde su casa hasta su lugar de trabajo?,3,red,0,1,1,1,0,1,1,1,5.203462100000252,,,,,,,,,,,,,,,5.176721300000281,5.203462100000252,5.276346799999374,773583,001,2024-04-28_12h19.59.154,ArchivoPrueba,2024.1.1,None,2024-04-28 12h20.09.224697 -0500,
¿Recuerda  algún inconveniente que ha  experimentado en el camino de su residencia a su lugar de trabajo?,5,white,0,1,1,1,0,2,2,2,5.303397300000142,,,,,,,,,,,,,,,5.276674099999582,5.303397300000142,5.375898300000699,773583,001,2024-04-28_12h19.59.154,ArchivoPrueba,2024.1.1,None,2024-04-28 12h20.09.224697 -0500,
¿Recuerda si hay algún lugar u objeto en su camino hacia el trabajo que le llame la atención?,7,blue,0,1,1,1,0,3,3,3,5.389056599999094,,,,,,,,,,,,,,,5.376171500000055,5.389056599999094,5.4762477000003855,773583,001,2024-04-28_12h19.59.154,ArchivoPrueba,2024.1.1,None,2024-04-28 12h20.09.224697 -0500,
" ¿Recuerda el recorrido desde la entrada de su lugar de trabajo hasta su oficina, donde realiza sus funciones?",9,yellow,0,1,1,1,0,4,4,4,5.503019600000698,,,,,,,,,,,,,,,5.476550400000633,5.503019600000698,5.5759367999999085,773583,001,2024-04-28_12h19.59.154,ArchivoPrueba,2024.1.1,None,2024-04-28 12h20.09.224697 -0500,
¿Recuerda alguna actividad que realice durante los viajes de regreso a casa desde el trabajo para relajarse?,11,orange,0,1,1,1,0,5,5,5,5.6025392999999895,,,,,,,,,,,,,,,5.576237400000537,5.6025392999999895,5.675847099999373,773583,001,2024-04-28_12h19.59.154,ArchivoPrueba,2024.1.1,None,2024-04-28 12h20.09.224697 -0500,
¿Recuerda el trayecto que realiza desde su casa hasta el lugar donde realiza sus compras?,13,brown,0,1,1,1,0,6,6,6,5.702559800000017,,,,,,,,,,,,,,,5.676407799999652,5.702559800000017,5.776342400000431,773583,001,2024-04-28_12h19.59.154,ArchivoPrueba,2024.1.1,None,2024-04-28 12h20.09.224697 -0500,
¿Recuerda alguna situación divertida o interesante que haya experimentado durante el recorrido hacia el lugar de compras?,15,purple,0,1,1,1,0,7,7,7,5.8026442999998835,,,,,,,,,,,,,,,5.776616799999829,5.8026442999998835,5.875894999999218,773583,001,2024-04-28_12h19.59.154,ArchivoPrueba,2024.1.1,None,2024-04-28 12h20.09.224697 -0500,
 ¿Recuerda qué es lo primero que ve al llegar al lugar donde realiza sus compras?,17,green,0,1,1,1,0,8,8,8,5.902843199999552,,,,,,,,,,,,,,,5.876250499999514,5.902843199999552,5.976153499999782,773583,001,2024-04-28_12h19.59.154,ArchivoPrueba,2024.1.1,None,2024-04-28 12h20.09.224697 -0500,
¿Recuerda el recorrido desde su residencia hasta el centro de resonancia magnética?,19,red,0,1,1,1,0,9,9,9,6.002600600000733,,,,,,,,,,,,,,,5.976530800000546,6.002600600000733,6.075486300000193,773583,001,2024-04-28_12h19.59.154,ArchivoPrueba,2024.1.1,None,2024-04-28 12h20.09.224697 -0500,
None,21,white,0,1,1,1,0,10,10,10,6.102744800000437,,,,,,,,,,,,,,,6.075778599999467,6.102744800000437,6.189332699999795,773583,001,2024-04-28_12h19.59.154,ArchivoPrueba,2024.1.1,None,2024-04-28 12h20.09.224697 -0500,
None,23,blue,0,1,1,1,0,11,11,11,6.205196299999443,,,,,,,,,,,,,,,6.189605399998982,6.205196299999443,6.275793099999646,773583,001,2024-04-28_12h19.59.154,ArchivoPrueba,2024.1.1,None,2024-04-28 12h20.09.224697 -0500,
None,25,yellow,0,1,1,1,0,12,12,12,6.3021683000006306,,,,,,,,,,,,,,,6.276154200000747,6.3021683000006306,6.375593099999605,773583,001,2024-04-28_12h19.59.154,ArchivoPrueba,2024.1.1,None,2024-04-28 12h20.09.224697 -0500,
None,27,orange,0,1,1,1,0,13,13,13,6.4023679999991145,,,,,,,,,,,,,,,6.375900499999261,6.4023679999991145,6.475426099999822,773583,001,2024-04-28_12h19.59.154,ArchivoPrueba,2024.1.1,None,2024-04-28 12h20.09.224697 -0500,
None,29,brown,0,1,1,1,0,14,14,14,6.502554200000304,,,,,,,,,,,,,,,6.475698799999009,6.502554200000304,6.575284200000169,773583,001,2024-04-28_12h19.59.154,ArchivoPrueba,2024.1.1,None,2024-04-28 12h20.09.224697 -0500,
None,31,purple,0,1,1,1,0,15,15,15,6.602004300000772,,,,,,,,,,,,,,,6.575560799999948,6.602004300000772,6.674766399999498,773583,001,2024-04-28_12h19.59.154,ArchivoPrueba,2024.1.1,None,2024-04-28 12h20.09.224697 -0500,
None,33,green,0,1,1,1,0,16,16,16,6.702034599999024,,,,,,,,,,,,,,,6.675139900000431,6.702034599999024,6.774919100000261,773583,001,2024-04-28_12h19.59.154,ArchivoPrueba,2024.1.1,None,2024-04-28 12h20.09.224697 -0500,
None,35,red,0,1,1,1,0,17,17,17,6.801719999999477,,,,,,,,,,,,,,,6.775297399999545,6.801719999999477,6.87476179999976,773583,001,2024-04-28_12h19.59.154,ArchivoPrueba,2024.1.1,None,2024-04-28 12h20.09.224697 -0500,
None,37,white,0,1,1,1,0,18,18,18,6.901487900000575,,,,,,,,,,,,,,,6.875071599999501,6.901487900000575,6.976400999999896,773583,001,2024-04-28_12h19.59.154,ArchivoPrueba,2024.1.1,None,2024-04-28 12h20.09.224697 -0500,
None,39,blue,0,1,1,1,0,19,19,19,7.001409500000591,,,,,,,,,,,,,,,6.976768799999263,7.001409500000591,7.0748595999993995,773583,001,2024-04-28_12h19.59.154,ArchivoPrueba,2024.1.1,None,2024-04-28 12h20.09.224697 -0500,
¿Recuerda el trayecto que hace desde su casa hasta su lugar de trabajo?,3,red,0,1,1,1,,,,,,,,,,,,,,,,,,,,,,,773583,001,2024-04-28_12h19.59.154,ArchivoPrueba,2024.1.1,None,2024-04-28 12h20.09.224697 -0500,
¿Recuerda el recorrido que realiza desde su cama hasta la cocina de su residencia?,1,green,0,2,2,2,0,0,0,0,8.100920999999289,,,,,,,,,,,,7.075230899999951,7.099920700000439,8.07484520000071,8.087155499999426,8.100920999999289,8.174127300000691,773583,001,2024-04-28_12h19.59.154,ArchivoPrueba,2024.1.1,None,2024-04-28 12h20.09.224697 -0500,
¿Recuerda el trayecto que hace desde su casa hasta su lugar de trabajo?,3,red,0,2,2,2,0,1,1,1,8.203205300000263,,,,,,,,,,,,,,,8.174482799999168,8.203205300000263,8.277766499999416,773583,001,2024-04-28_12h19.59.154,ArchivoPrueba,2024.1.1,None,2024-04-28 12h20.09.224697 -0500,
¿Recuerda  algún inconveniente que ha  experimentado en el camino de su residencia a su lugar de trabajo?,5,white,0,2,2,2,0,2,2,2,8.308809099999053,,,,,,,,,,,,,,,8.278252399999474,8.308809099999053,8.389371900000697,773583,001,2024-04-28_12h19.59.154,ArchivoPrueba,2024.1.1,None,2024-04-28 12h20.09.224697 -0500,
¿Recuerda si hay algún lugar u objeto en su camino hacia el trabajo que le llame la atención?,7,blue,0,2,2,2,0,3,3,3,8.416720299999724,,,,,,,,,,,,,,,8.389822999999524,8.416720299999724,8.47375490000013,773583,001,2024-04-28_12h19.59.154,ArchivoPrueba,2024.1.1,None,2024-04-28 12h20.09.224697 -0500,
" ¿Recuerda el recorrido desde la entrada de su lugar de trabajo hasta su oficina, donde realiza sus funciones?",9,yellow,0,2,2,2,0,4,4,4,8.50001969999903,,,,,,,,,,,,,,,8.474184900000182,8.50001969999903,8.576440700000603,773583,001,2024-04-28_12h19.59.154,ArchivoPrueba,2024.1.1,None,2024-04-28 12h20.09.224697 -0500,
¿Recuerda alguna actividad que realice durante los viajes de regreso a casa desde el trabajo para relajarse?,11,orange,0,2,2,2,0,5,5,5,8.599927999999636,,,,,,,,,,,,,,,8.576941299999817,8.599927999999636,8.676419800000076,773583,001,2024-04-28_12h19.59.154,ArchivoPrueba,2024.1.1,None,2024-04-28 12h20.09.224697 -0500,
¿Recuerda el trayecto que realiza desde su casa hasta el lugar donde realiza sus compras?,13,brown,0,2,2,2,0,6,6,6,8.699808699999267,,,,,,,,,,,,,,,8.67690980000043,8.699808699999267,8.775917599999957,773583,001,2024-04-28_12h19.59.154,ArchivoPrueba,2024.1.1,None,2024-04-28 12h20.09.224697 -0500,
¿Recuerda alguna situación divertida o interesante que haya experimentado durante el recorrido hacia el lugar de compras?,15,purple,0,2,2,2,0,7,7,7,8.799922300000617,,,,,,,,,,,,,,,8.776375699999335,8.799922300000617,8.875838800000565,773583,001,2024-04-28_12h19.59.154,ArchivoPrueba,2024.1.1,None,2024-04-28 12h20.09.224697 -0500,
 ¿Recuerda qué es lo primero que ve al llegar al lugar donde realiza sus compras?,17,green,0,2,2,2,0,8,8,8,8.899870600000213,,,,,,,,,,,,,,,8.876307799999267,8.899870600000213,8.972469399999682,773583,001,2024-04-28_12h19.59.154,ArchivoPrueba,2024.1.1,None,2024-04-28 12h20.09.224697 -0500,
¿Recuerda el recorrido desde su residencia hasta el centro de resonancia magnética?,19,red,0,2,2,2,0,9,9,9,8.985715400000117,,,,,,,,,,,,,,,8.972775599999295,8.985715400000117,9.072813000000679,773583,001,2024-04-28_12h19.59.154,ArchivoPrueba,2024.1.1,None,2024-04-28 12h20.09.224697 -0500,
None,21,white,0,2,2,2,0,10,10,10,9.099582999999257,,,,,,,,,,,,,,,9.073157700000593,9.099582999999257,9.172675800000434,773583,001,2024-04-28_12h19.59.154,ArchivoPrueba,2024.1.1,None,2024-04-28 12h20.09.224697 -0500,
None,23,blue,0,2,2,2,0,11,11,11,9.199973499999032,,,,,,,,,,,,,,,9.172956700000213,9.199973499999032,9.272716899999068,773583,001,2024-04-28_12h19.59.154,ArchivoPrueba,2024.1.1,None,2024-04-28 12h20.09.224697 -0500,
None,25,yellow,0,2,2,2,0,12,12,12,9.300011299999824,,,,,,,,,,,,,,,9.273009399999864,9.300011299999824,9.372619499999928,773583,001,2024-04-28_12h19.59.154,ArchivoPrueba,2024.1.1,None,2024-04-28 12h20.09.224697 -0500,
None,27,orange,0,2,2,2,0,13,13,13,9.399658599999384,,,,,,,,,,,,,,,9.372915300000386,9.399658599999384,9.472464700000273,773583,001,2024-04-28_12h19.59.154,ArchivoPrueba,2024.1.1,None,2024-04-28 12h20.09.224697 -0500,
None,29,brown,0,2,2,2,0,14,14,14,9.499413999999888,,,,,,,,,,,,,,,9.47276950000014,9.499413999999888,9.572738999999274,773583,001,2024-04-28_12h19.59.154,ArchivoPrueba,2024.1.1,None,2024-04-28 12h20.09.224697 -0500,
None,31,purple,0,2,2,2,0,15,15,15,9.599195000000691,,,,,,,,,,,,,,,9.573010300000533,9.599195000000691,9.689236599999276,773583,001,2024-04-28_12h19.59.154,ArchivoPrueba,2024.1.1,None,2024-04-28 12h20.09.224697 -0500,
None,33,green,0,2,2,2,0,16,16,16,9.71866559999944,,,,,,,,,,,,,,,9.689556299999822,9.71866559999944,9.773116599999412,773583,001,2024-04-28_12h19.59.154,ArchivoPrueba,2024.1.1,None,2024-04-28 12h20.09.224697 -0500,
None,35,red,0,2,2,2,0,17,17,17,9.799127399999634,,,,,,,,,,,,,,,9.77347109999937,9.799127399999634,9.87244869999995,773583,001,2024-04-28_12h19.59.154,ArchivoPrueba,2024.1.1,None,2024-04-28 12h20.09.224697 -0500,
None,37,white,0,2,2,2,0,18,18,18,9.899307800000315,,,,,,,,,,,,,,,9.872725100000025,9.899307800000315,9.97199720000026,773583,001,2024-04-28_12h19.59.154,ArchivoPrueba,2024.1.1,None,2024-04-28 12h20.09.224697 -0500,
None,39,blue,0,2,2,2,0,19,19,19,9.99910649999947,,,,,,,,,,,,,,,9.972276099999362,9.99910649999947,10.071956699999646,773583,001,2024-04-28_12h19.59.154,ArchivoPrueba,2024.1.1,None,2024-04-28 12h20.09.224697 -0500,
¿Recuerda  algún inconveniente que ha  experimentado en el camino de su residencia a su lugar de trabajo?,5,white,0,2,2,2,,,,,,,,,,,,,,,,,,,,,,,773583,001,2024-04-28_12h19.59.154,ArchivoPrueba,2024.1.1,None,2024-04-28 12h20.09.224697 -0500,
¿Recuerda el recorrido que realiza desde su cama hasta la cocina de su residencia?,1,green,0,3,3,3,0,0,0,0,11.098078499999247,,,,,,,,,,,,10.072329000000536,10.097441899999467,11.071508600000016,11.0813806999995,11.098078499999247,11.171326100000442,773583,001,2024-04-28_12h19.59.154,ArchivoPrueba,2024.1.1,None,2024-04-28 12h20.09.224697 -0500,
¿Recuerda el trayecto que hace desde su casa hasta su lugar de trabajo?,3,red,0,3,3,3,0,1,1,1,11.198237500000687,,,,,,,,,,,,,,,11.171667700000398,11.198237500000687,11.270806799999264,773583,001,2024-04-28_12h19.59.154,ArchivoPrueba,2024.1.1,None,2024-04-28 12h20.09.224697 -0500,
¿Recuerda  algún inconveniente que ha  experimentado en el camino de su residencia a su lugar de trabajo?,5,white,0,3,3,3,0,2,2,2,11.297921999999744,,,,,,,,,,,,,,,11.271107999999003,11.297921999999744,11.37083630000052,773583,001,2024-04-28_12h19.59.154,ArchivoPrueba,2024.1.1,None,2024-04-28 12h20.09.224697 -0500,
¿Recuerda si hay algún lugar u objeto en su camino hacia el trabajo que le llame la atención?,7,blue,0,3,3,3,0,3,3,3,11.39775969999937,,,,,,,,,,,,,,,11.371153500000219,11.39775969999937,11.470869000000675,773583,001,2024-04-28_12h19.59.154,ArchivoPrueba,2024.1.1,None,2024-04-28 12h20.09.224697 -0500,
" ¿Recuerda el recorrido desde la entrada de su lugar de trabajo hasta su oficina, donde realiza sus funciones?",9,yellow,0,3,3,3,0,4,4,4,11.497764399999141,,,,,,,,,,,,,,,11.47119980000025,11.497764399999141,11.570986400000038,773583,001,2024-04-28_12h19.59.154,ArchivoPrueba,2024.1.1,None,2024-04-28 12h20.09.224697 -0500,
¿Recuerda alguna actividad que realice durante los viajes de regreso a casa desde el trabajo para relajarse?,11,orange,0,3,3,3,0,5,5,5,11.597393800000646,,,,,,,,,,,,,,,11.571277799999734,11.597393800000646,11.671202999999878,773583,001,2024-04-28_12h19.59.154,ArchivoPrueba,2024.1.1,None,2024-04-28 12h20.09.224697 -0500,
¿Recuerda el trayecto que realiza desde su casa hasta el lugar donde realiza sus compras?,13,brown,0,3,3,3,0,6,6,6,11.697486900000513,,,,,,,,,,,,,,,11.671528700000636,11.697486900000513,11.770904099999825,773583,001,2024-04-28_12h19.59.154,ArchivoPrueba,2024.1.1,None,2024-04-28 12h20.09.224697 -0500,
¿Recuerda alguna situación divertida o interesante que haya experimentado durante el recorrido hacia el lugar de compras?,15,purple,0,3,3,3,0,7,7,7,11.797372700000778,,,,,,,,,,,,,,,11.771176599999308,11.797372700000778,11.870369500000379,773583,001,2024-04-28_12h19.59.154,ArchivoPrueba,2024.1.1,None,2024-04-28 12h20.09.224697 -0500,
 ¿Recuerda qué es lo primero que ve al llegar al lugar donde realiza sus compras?,17,green,0,3,3,3,0,8,8,8,11.897472200000266,,,,,,,,,,,,,,,11.87078079999992,11.897472200000266,11.970155499999237,773583,001,2024-04-28_12h19.59.154,ArchivoPrueba,2024.1.1,None,2024-04-28 12h20.09.224697 -0500,
¿Recuerda el recorrido desde su residencia hasta el centro de resonancia magnética?,19,red,0,3,3,3,0,9,9,9,11.997384799999054,,,,,,,,,,,,,,,11.970497300000716,11.997384799999054,12.070530200000576,773583,001,2024-04-28_12h19.59.154,ArchivoPrueba,2024.1.1,None,2024-04-28 12h20.09.224697 -0500,
None,21,white,0,3,3,3,0,10,10,10,12.097502700000405,,,,,,,,,,,,,,,12.070821799999976,12.097502700000405,12.17048430000068,773583,001,2024-04-28_12h19.59.154,ArchivoPrueba,2024.1.1,None,2024-04-28 12h20.09.224697 -0500,
None,23,blue,0,3,3,3,0,11,11,11,12.197026600000754,,,,,,,,,,,,,,,12.17078760000004,12.197026600000754,12.270936799999618,773583,001,2024-04-28_12h19.59.154,ArchivoPrueba,2024.1.1,None,2024-04-28 12h20.09.224697 -0500,
None,25,yellow,0,3,3,3,0,12,12,12,12.297165199999654,,,,,,,,,,,,,,,12.271236599999611,12.297165199999654,12.370049799999833,773583,001,2024-04-28_12h19.59.154,ArchivoPrueba,2024.1.1,None,2024-04-28 12h20.09.224697 -0500,
None,27,orange,0,3,3,3,0,13,13,13,12.396935400000075,,,,,,,,,,,,,,,12.370354399999997,12.396935400000075,12.469815200000085,773583,001,2024-04-28_12h19.59.154,ArchivoPrueba,2024.1.1,None,2024-04-28 12h20.09.224697 -0500,
None,29,brown,0,3,3,3,0,14,14,14,12.496796699999322,,,,,,,,,,,,,,,12.470138200000292,12.496796699999322,12.570168500000364,773583,001,2024-04-28_12h19.59.154,ArchivoPrueba,2024.1.1,None,2024-04-28 12h20.09.224697 -0500,
None,31,purple,0,3,3,3,0,15,15,15,12.59645509999973,,,,,,,,,,,,,,,12.5704738000004,12.59645509999973,12.669789300000048,773583,001,2024-04-28_12h19.59.154,ArchivoPrueba,2024.1.1,None,2024-04-28 12h20.09.224697 -0500,
None,33,green,0,3,3,3,0,16,16,16,12.696430899999541,,,,,,,,,,,,,,,12.67012860000068,12.696430899999541,12.769437700000708,773583,001,2024-04-28_12h19.59.154,ArchivoPrueba,2024.1.1,None,2024-04-28 12h20.09.224697 -0500,
None,35,red,0,3,3,3,0,17,17,17,12.796521199999916,,,,,,,,,,,,,,,12.769762599999012,12.796521199999916,12.86981360000027,773583,001,2024-04-28_12h19.59.154,ArchivoPrueba,2024.1.1,None,2024-04-28 12h20.09.224697 -0500,
None,37,white,0,3,3,3,0,18,18,18,12.896334900000511,,,,,,,,,,,,,,,12.870114900000772,12.896334900000511,12.969533199999205,773583,001,2024-04-28_12h19.59.154,ArchivoPrueba,2024.1.1,None,2024-04-28 12h20.09.224697 -0500,
None,39,blue,0,3,3,3,0,19,19,19,12.996394300000247,,,,,,,,,,,,,,,12.969852099999116,12.996394300000247,13.07032099999924,773583,001,2024-04-28_12h19.59.154,ArchivoPrueba,2024.1.1,None,2024-04-28 12h20.09.224697 -0500,
¿Recuerda si hay algún lugar u objeto en su camino hacia el trabajo que le llame la atención?,7,blue,0,3,3,3,,,,,,,,,,,,,,,,,,,,,,,773583,001,2024-04-28_12h19.59.154,ArchivoPrueba,2024.1.1,None,2024-04-28 12h20.09.224697 -0500,
¿Recuerda el recorrido que realiza desde su cama hasta la cocina de su residencia?,1,green,0,4,4,4,0,0,0,0,14.095762499999182,,,,,,,,,,,,13.07080970000061,13.094704299999648,14.069266700000298,14.079896799999915,14.095762499999182,14.182215900000301,773583,001,2024-04-28_12h19.59.154,ArchivoPrueba,2024.1.1,None,2024-04-28 12h20.09.224697 -0500,
¿Recuerda el trayecto que hace desde su casa hasta su lugar de trabajo?,3,red,0,4,4,4,0,1,1,1,14.198229499999798,,,,,,,,,,,,,,,14.182509199999913,14.198229499999798,14.268355399999564,773583,001,2024-04-28_12h19.59.154,ArchivoPrueba,2024.1.1,None,2024-04-28 12h20.09.224697 -0500,
¿Recuerda  algún inconveniente que ha  experimentado en el camino de su residencia a su lugar de trabajo?,5,white,0,4,4,4,0,2,2,2,14.295360800000708,,,,,,,,,,,,,,,14.268651500000487,14.295360800000708,14.368285200000173,773583,001,2024-04-28_12h19.59.154,ArchivoPrueba,2024.1.1,None,2024-04-28 12h20.09.224697 -0500,
¿Recuerda si hay algún lugar u objeto en su camino hacia el trabajo que le llame la atención?,7,blue,0,4,4,4,0,3,3,3,14.394986499999504,,,,,,,,,,,,,,,14.368608999999196,14.394986499999504,14.468164500000057,773583,001,2024-04-28_12h19.59.154,ArchivoPrueba,2024.1.1,None,2024-04-28 12h20.09.224697 -0500,
" ¿Recuerda el recorrido desde la entrada de su lugar de trabajo hasta su oficina, donde realiza sus funciones?",9,yellow,0,4,4,4,0,4,4,4,14.494821700000102,,,,,,,,,,,,,,,14.46849839999959,14.494821700000102,14.56810570000016,773583,001,2024-04-28_12h19.59.154,ArchivoPrueba,2024.1.1,None,2024-04-28 12h20.09.224697 -0500,
¿Recuerda alguna actividad que realice durante los viajes de regreso a casa desde el trabajo para relajarse?,11,orange,0,4,4,4,0,5,5,5,14.595114899999317,,,,,,,,,,,,,,,14.568484100000205,14.595114899999317,14.66840509999929,773583,001,2024-04-28_12h19.59.154,ArchivoPrueba,2024.1.1,None,2024-04-28 12h20.09.224697 -0500,
¿Recuerda el trayecto que realiza desde su casa hasta el lugar donde realiza sus compras?,13,brown,0,4,4,4,0,6,6,6,14.695011100000556,,,,,,,,,,,,,,,14.668682999999874,14.695011100000556,14.76834240000062,773583,001,2024-04-28_12h19.59.154,ArchivoPrueba,2024.1.1,None,2024-04-28 12h20.09.224697 -0500,
¿Recuerda alguna situación divertida o interesante que haya experimentado durante el recorrido hacia el lugar de compras?,15,purple,0,4,4,4,0,7,7,7,14.794962699999815,,,,,,,,,,,,,,,14.768616299999849,14.794962699999815,14.868099900000743,773583,001,2024-04-28_12h19.59.154,ArchivoPrueba,2024.1.1,None,2024-04-28 12h20.09.224697 -0500,
 ¿Recuerda qué es lo primero que ve al llegar al lugar donde realiza sus compras?,17,green,0,4,4,4,0,8,8,8,14.895089499999813,,,,,,,,,,,,,,,14.868455699999686,14.895089499999813,14.969231299999592,773583,001,2024-04-28_12h19.59.154,ArchivoPrueba,2024.1.1,None,2024-04-28 12h20.09.224697 -0500,
¿Recuerda el recorrido desde su residencia hasta el centro de resonancia magnética?,19,red,0,4,4,4,0,9,9,9,14.994890699999814,,,,,,,,,,,,,,,14.969579999999041,14.994890699999814,15.068119999999908,773583,001,2024-04-28_12h19.59.154,ArchivoPrueba,2024.1.1,None,2024-04-28 12h20.09.224697 -0500,
None,21,white,0,4,4,4,0,10,10,10,15.094689699999435,,,,,,,,,,,,,,,15.06851110000025,15.094689699999435,15.167293799999243,773583,001,2024-04-28_12h19.59.154,ArchivoPrueba,2024.1.1,None,2024-04-28 12h20.09.224697 -0500,
None,23,blue,0,4,4,4,0,11,11,11,15.194615399999748,,,,,,,,,,,,,,,15.16760129999966,15.194615399999748,15.267561099999511,773583,001,2024-04-28_12h19.59.154,ArchivoPrueba,2024.1.1,None,2024-04-28 12h20.09.224697 -0500,
None,25,yellow,0,4,4,4,0,12,12,12,15.294236499999897,,,,,,,,,,,,,,,15.267915399999765,15.294236499999897,15.36758430000009,773583,001,2024-04-28_12h19.59.154,ArchivoPrueba,2024.1.1,None,2024-04-28 12h20.09.224697 -0500,
None,27,orange,0,4,4,4,0,13,13,13,15.394308200000523,,,,,,,,,,,,,,,15.367859100000715,15.394308200000523,15.467634200000248,773583,001,2024-04-28_12h19.59.154,ArchivoPrueba,2024.1.1,None,2024-04-28 12h20.09.224697 -0500,
None,29,brown,0,4,4,4,0,14,14,14,15.494220000000496,,,,,,,,,,,,,,,15.467926400000579,15.494220000000496,15.567599300000438,773583,001,2024-04-28_12h19.59.154,ArchivoPrueba,2024.1.1,None,2024-04-28 12h20.09.224697 -0500,
None,31,purple,0,4,4,4,0,15,15,15,15.594203799999377,,,,,,,,,,,,,,,15.567869200000132,15.594203799999377,15.667366499999844,773583,001,2024-04-28_12h19.59.154,ArchivoPrueba,2024.1.1,None,2024-04-28 12h20.09.224697 -0500,
None,33,green,0,4,4,4,0,16,16,16,15.69404570000006,,,,,,,,,,,,,,,15.6676824999995,15.69404570000006,15.767644999999902,773583,001,2024-04-28_12h19.59.154,ArchivoPrueba,2024.1.1,None,2024-04-28 12h20.09.224697 -0500,
None,35,red,0,4,4,4,0,17,17,17,15.794131700000435,,,,,,,,,,,,,,,15.767955299999812,15.794131700000435,15.86710149999999,773583,001,2024-04-28_12h19.59.154,ArchivoPrueba,2024.1.1,None,2024-04-28 12h20.09.224697 -0500,
None,37,white,0,4,4,4,0,18,18,18,15.893995899999936,,,,,,,,,,,,,,,15.867445600000792,15.893995899999936,15.967272399999274,773583,001,2024-04-28_12h19.59.154,ArchivoPrueba,2024.1.1,None,2024-04-28 12h20.09.224697 -0500,
None,39,blue,0,4,4,4,0,19,19,19,15.993512600000031,,,,,,,,,,,,,,,15.967585399999734,15.993512600000031,16.06679119999899,773583,001,2024-04-28_12h19.59.154,ArchivoPrueba,2024.1.1,None,2024-04-28 12h20.09.224697 -0500,
" ¿Recuerda el recorrido desde la entrada de su lugar de trabajo hasta su oficina, donde realiza sus funciones?",9,yellow,0,4,4,4,,,,,,,,,,,,,,,,,,,,,,,773583,001,2024-04-28_12h19.59.154,ArchivoPrueba,2024.1.1,None,2024-04-28 12h20.09.224697 -0500,
¿Recuerda el recorrido que realiza desde su cama hasta la cocina de su residencia?,1,green,0,5,5,5,0,0,0,0,17.09301889999915,,,,,,,,,,,,16.067199099999925,16.09420510000018,17.065923699999985,17.076439700000265,17.09301889999915,17.166351899999427,773583,001,2024-04-28_12h19.59.154,ArchivoPrueba,2024.1.1,None,2024-04-28 12h20.09.224697 -0500,
¿Recuerda el trayecto que hace desde su casa hasta su lugar de trabajo?,3,red,0,5,5,5,0,1,1,1,17.192875299999287,,,,,,,,,,,,,,,17.166846399999486,17.192875299999287,17.265937099999064,773583,001,2024-04-28_12h19.59.154,ArchivoPrueba,2024.1.1,None,2024-04-28 12h20.09.224697 -0500,
¿Recuerda  algún inconveniente que ha  experimentado en el camino de su residencia a su lugar de trabajo?,5,white,0,5,5,5,0,2,2,2,17.29266049999933,,,,,,,,,,,,,,,17.266311600000336,17.29266049999933,17.365596800000276,773583,001,2024-04-28_12h19.59.154,ArchivoPrueba,2024.1.1,None,2024-04-28 12h20.09.224697 -0500,
¿Recuerda si hay algún lugar u objeto en su camino hacia el trabajo que le llame la atención?,7,blue,0,5,5,5,0,3,3,3,17.392890900000566,,,,,,,,,,,,,,,17.365926799999215,17.392890900000566,17.465459900000496,773583,001,2024-04-28_12h19.59.154,ArchivoPrueba,2024.1.1,None,2024-04-28 12h20.09.224697 -0500,
" ¿Recuerda el recorrido desde la entrada de su lugar de trabajo hasta su oficina, donde realiza sus funciones?",9,yellow,0,5,5,5,0,4,4,4,17.49280700000054,,,,,,,,,,,,,,,17.465743299999303,17.49280700000054,17.56567840000025,773583,001,2024-04-28_12h19.59.154,ArchivoPrueba,2024.1.1,None,2024-04-28 12h20.09.224697 -0500,
¿Recuerda alguna actividad que realice durante los viajes de regreso a casa desde el trabajo para relajarse?,11,orange,0,5,5,5,0,5,5,5,17.59247839999989,,,,,,,,,,,,,,,17.56595600000037,17.59247839999989,17.666265199999543,773583,001,2024-04-28_12h19.59.154,ArchivoPrueba,2024.1.1,None,2024-04-28 12h20.09.224697 -0500,
¿Recuerda el trayecto que realiza desde su casa hasta el lugar donde realiza sus compras?,13,brown,0,5,5,5,0,6,6,6,17.692605500000354,,,,,,,,,,,,,,,17.66657110000051,17.692605500000354,17.765537600000243,773583,001,2024-04-28_12h19.59.154,ArchivoPrueba,2024.1.1,None,2024-04-28 12h20.09.224697 -0500,
¿Recuerda alguna situación divertida o interesante que haya experimentado durante el recorrido hacia el lugar de compras?,15,purple,0,5,5,5,0,7,7,7,17.792198900000585,,,,,,,,,,,,,,,17.76583120000032,17.792198900000585,17.865264599999136,773583,001,2024-04-28_12h19.59.154,ArchivoPrueba,2024.1.1,None,2024-04-28 12h20.09.224697 -0500,
 ¿Recuerda qué es lo primero que ve al llegar al lugar donde realiza sus compras?,17,green,0,5,5,5,0,8,8,8,17.89207489999899,,,,,,,,,,,,,,,17.865604700000404,17.89207489999899,17.965584300000046,773583,001,2024-04-28_12h19.59.154,ArchivoPrueba,2024.1.1,None,2024-04-28 12h20.09.224697 -0500,
¿Recuerda el recorrido desde su residencia hasta el centro de resonancia magnética?,19,red,0,5,5,5,0,9,9,9,17.991952099999253,,,,,,,,,,,,,,,17.965899299999364,17.991952099999253,18.082083699999203,773583,001,2024-04-28_12h19.59.154,ArchivoPrueba,2024.1.1,None,2024-04-28 12h20.09.224697 -0500,
None,21,white,0,5,5,5,0,10,10,10,18.10864600000059,,,,,,,,,,,,,,,18.082435099999202,18.10864600000059,18.182791799999904,773583,001,2024-04-28_12h19.59.154,ArchivoPrueba,2024.1.1,None,2024-04-28 12h20.09.224697 -0500,
None,23,blue,0,5,5,5,0,11,11,11,18.208734300000287,,,,,,,,,,,,,,,18.18306230000053,18.208734300000287,18.28122330000042,773583,001,2024-04-28_12h19.59.154,ArchivoPrueba,2024.1.1,None,2024-04-28 12h20.09.224697 -0500,
None,25,yellow,0,5,5,5,0,12,12,12,18.30858090000038,,,,,,,,,,,,,,,18.2815683000008,18.30858090000038,18.38190140000006,773583,001,2024-04-28_12h19.59.154,ArchivoPrueba,2024.1.1,None,2024-04-28 12h20.09.224697 -0500,
None,27,orange,0,5,5,5,0,13,13,13,18.408386499999324,,,,,,,,,,,,,,,18.382205399999293,18.408386499999324,18.48164480000014,773583,001,2024-04-28_12h19.59.154,ArchivoPrueba,2024.1.1,None,2024-04-28 12h20.09.224697 -0500,
None,29,brown,0,5,5,5,0,14,14,14,18.508301100000608,,,,,,,,,,,,,,,18.481953799999246,18.508301100000608,18.58133810000072,773583,001,2024-04-28_12h19.59.154,ArchivoPrueba,2024.1.1,None,2024-04-28 12h20.09.224697 -0500,
None,31,purple,0,5,5,5,0,15,15,15,18.608354699999836,,,,,,,,,,,,,,,18.581651200000124,18.608354699999836,18.681417100000544,773583,001,2024-04-28_12h19.59.154,ArchivoPrueba,2024.1.1,None,2024-04-28 12h20.09.224697 -0500,
None,33,green,0,5,5,5,0,16,16,16,18.708114699998987,,,,,,,,,,,,,,,18.681705999999394,18.708114699998987,18.78130930000043,773583,001,2024-04-28_12h19.59.154,ArchivoPrueba,2024.1.1,None,2024-04-28 12h20.09.224697 -0500,
None,35,red,0,5,5,5,0,17,17,17,18.80818200000067,,,,,,,,,,,,,,,18.781639099999666,18.80818200000067,18.881648399999904,773583,001,2024-04-28_12h19.59.154,ArchivoPrueba,2024.1.1,None,2024-04-28 12h20.09.224697 -0500,
None,37,white,0,5,5,5,0,18,18,18,18.90826620000007,,,,,,,,,,,,,,,18.88198469999952,18.90826620000007,18.981705399999555,773583,001,2024-04-28_12h19.59.154,ArchivoPrueba,2024.1.1,None,2024-04-28 12h20.09.224697 -0500,
None,39,blue,0,5,5,5,0,19,19,19,19.007934999999634,,,,,,,,,,,,,,,18.982004100000267,19.007934999999634,19.08090119999906,773583,001,2024-04-28_12h19.59.154,ArchivoPrueba,2024.1.1,None,2024-04-28 12h20.09.224697 -0500,
¿Recuerda alguna actividad que realice durante los viajes de regreso a casa desde el trabajo para relajarse?,11,orange,0,5,5,5,,,,,,,,,,,,,,,,,,,,,,,773583,001,2024-04-28_12h19.59.154,ArchivoPrueba,2024.1.1,None,2024-04-28 12h20.09.224697 -0500,
¿Recuerda el recorrido que realiza desde su cama hasta la cocina de su residencia?,1,green,0,6,6,6,0,0,0,0,20.10694759999933,,,,,,,,,,,,19.081350000000384,19.10812889999943,20.08017219999965,20.090491999999358,20.10694759999933,20.180470600000262,773583,001,2024-04-28_12h19.59.154,ArchivoPrueba,2024.1.1,None,2024-04-28 12h20.09.224697 -0500,
¿Recuerda el trayecto que hace desde su casa hasta su lugar de trabajo?,3,red,0,6,6,6,0,1,1,1,20.206903300000704,,,,,,,,,,,,,,,20.18077799999992,20.206903300000704,20.27964350000002,773583,001,2024-04-28_12h19.59.154,ArchivoPrueba,2024.1.1,None,2024-04-28 12h20.09.224697 -0500,
¿Recuerda  algún inconveniente que ha  experimentado en el camino de su residencia a su lugar de trabajo?,5,white,0,6,6,6,0,2,2,2,20.306826199999705,,,,,,,,,,,,,,,20.279936299999463,20.306826199999705,20.380189999999857,773583,001,2024-04-28_12h19.59.154,ArchivoPrueba,2024.1.1,None,2024-04-28 12h20.09.224697 -0500,
¿Recuerda si hay algún lugar u objeto en su camino hacia el trabajo que le llame la atención?,7,blue,0,6,6,6,0,3,3,3,20.40659190000042,,,,,,,,,,,,,,,20.380522499999643,20.40659190000042,20.479685500000414,773583,001,2024-04-28_12h19.59.154,ArchivoPrueba,2024.1.1,None,2024-04-28 12h20.09.224697 -0500,
" ¿Recuerda el recorrido desde la entrada de su lugar de trabajo hasta su oficina, donde realiza sus funciones?",9,yellow,0,6,6,6,0,4,4,4,20.506117200000517,,,,,,,,,,,,,,,20.480014999999185,20.506117200000517,20.579675700000735,773583,001,2024-04-28_12h19.59.154,ArchivoPrueba,2024.1.1,None,2024-04-28 12h20.09.224697 -0500,
¿Recuerda alguna actividad que realice durante los viajes de regreso a casa desde el trabajo para relajarse?,11,orange,0,6,6,6,0,5,5,5,20.606350399999428,,,,,,,,,,,,,,,20.579986400000053,20.606350399999428,20.679724600000554,773583,001,2024-04-28_12h19.59.154,ArchivoPrueba,2024.1.1,None,2024-04-28 12h20.09.224697 -0500,
¿Recuerda el trayecto que realiza desde su casa hasta el lugar donde realiza sus compras?,13,brown,0,6,6,6,0,6,6,6,20.706188300000576,,,,,,,,,,,,,,,20.67999830000008,20.706188300000576,20.779687000000195,773583,001,2024-04-28_12h19.59.154,ArchivoPrueba,2024.1.1,None,2024-04-28 12h20.09.224697 -0500,
¿Recuerda alguna situación divertida o interesante que haya experimentado durante el recorrido hacia el lugar de compras?,15,purple,0,6,6,6,0,7,7,7,20.806306599999516,,,,,,,,,,,,,,,20.779958900000565,20.806306599999516,20.879488799999308,773583,001,2024-04-28_12h19.59.154,ArchivoPrueba,2024.1.1,None,2024-04-28 12h20.09.224697 -0500,
 ¿Recuerda qué es lo primero que ve al llegar al lugar donde realiza sus compras?,17,green,0,6,6,6,0,8,8,8,20.906207699999868,,,,,,,,,,,,,,,20.879769099999976,20.906207699999868,20.979983999999604,773583,001,2024-04-28_12h19.59.154,ArchivoPrueba,2024.1.1,None,2024-04-28 12h20.09.224697 -0500,
¿Recuerda el recorrido desde su residencia hasta el centro de resonancia magnética?,19,red,0,6,6,6,0,9,9,9,21.006111299999247,,,,,,,,,,,,,,,20.980339100000492,21.006111299999247,21.079146399999445,773583,001,2024-04-28_12h19.59.154,ArchivoPrueba,2024.1.1,None,2024-04-28 12h20.09.224697 -0500,
None,21,white,0,6,6,6,0,10,10,10,21.10617959999945,,,,,,,,,,,,,,,21.07977860000028,21.10617959999945,21.17901179999899,773583,001,2024-04-28_12h19.59.154,ArchivoPrueba,2024.1.1,None,2024-04-28 12h20.09.224697 -0500,
None,23,blue,0,6,6,6,0,11,11,11,21.206027300000642,,,,,,,,,,,,,,,21.17939970000043,21.206027300000642,21.27886170000056,773583,001,2024-04-28_12h19.59.154,ArchivoPrueba,2024.1.1,None,2024-04-28 12h20.09.224697 -0500,
None,25,yellow,0,6,6,6,0,12,12,12,21.305961500000194,,,,,,,,,,,,,,,21.279178099999626,21.305961500000194,21.37876999999935,773583,001,2024-04-28_12h19.59.154,ArchivoPrueba,2024.1.1,None,2024-04-28 12h20.09.224697 -0500,
None,27,orange,0,6,6,6,0,13,13,13,21.40599529999963,,,,,,,,,,,,,,,21.37907230000019,21.40599529999963,21.478716699999495,773583,001,2024-04-28_12h19.59.154,ArchivoPrueba,2024.1.1,None,2024-04-28 12h20.09.224697 -0500,
None,29,brown,0,6,6,6,0,14,14,14,21.50574090000009,,,,,,,,,,,,,,,21.479027600000336,21.50574090000009,21.579049800000575,773583,001,2024-04-28_12h19.59.154,ArchivoPrueba,2024.1.1,None,2024-04-28 12h20.09.224697 -0500,
None,31,purple,0,6,6,6,0,15,15,15,21.60548740000013,,,,,,,,,,,,,,,21.579387199999474,21.60548740000013,21.678541100000075,773583,001,2024-04-28_12h19.59.154,ArchivoPrueba,2024.1.1,None,2024-04-28 12h20.09.224697 -0500,
None,33,green,0,6,6,6,0,16,16,16,21.705373599999803,,,,,,,,,,,,,,,21.678837999999814,21.705373599999803,21.77829930000007,773583,001,2024-04-28_12h19.59.154,ArchivoPrueba,2024.1.1,None,2024-04-28 12h20.09.224697 -0500,
None,35,red,0,6,6,6,0,17,17,17,21.80541819999962,,,,,,,,,,,,,,,21.77862119999918,21.80541819999962,21.878722800000105,773583,001,2024-04-28_12h19.59.154,ArchivoPrueba,2024.1.1,None,2024-04-28 12h20.09.224697 -0500,
None,37,white,0,6,6,6,0,18,18,18,21.905259099999967,,,,,,,,,,,,,,,21.879016400000182,21.905259099999967,21.978348299999197,773583,001,2024-04-28_12h19.59.154,ArchivoPrueba,2024.1.1,None,2024-04-28 12h20.09.224697 -0500,
None,39,blue,0,6,6,6,0,19,19,19,22.005029599999034,,,,,,,,,,,,,,,21.97871280000072,22.005029599999034,22.078415300000415,773583,001,2024-04-28_12h19.59.154,ArchivoPrueba,2024.1.1,None,2024-04-28 12h20.09.224697 -0500,
¿Recuerda el trayecto que realiza desde su casa hasta el lugar donde realiza sus compras?,13,brown,0,6,6,6,,,,,,,,,,,,,,,,,,,,,,,773583,001,2024-04-28_12h19.59.154,ArchivoPrueba,2024.1.1,None,2024-04-28 12h20.09.224697 -0500,
¿Recuerda el recorrido que realiza desde su cama hasta la cocina de su residencia?,1,green,0,7,7,7,0,0,0,0,23.10453199999938,,,,,,,,,,,,22.078889500000514,22.10533899999973,23.07824889999938,23.08867690000079,23.10453199999938,23.177004499999384,773583,001,2024-04-28_12h19.59.154,ArchivoPrueba,2024.1.1,None,2024-04-28 12h20.09.224697 -0500,
¿Recuerda el trayecto que hace desde su casa hasta su lugar de trabajo?,3,red,0,7,7,7,0,1,1,1,23.20432830000027,,,,,,,,,,,,,,,23.177275500000178,23.20432830000027,23.277375499999835,773583,001,2024-04-28_12h19.59.154,ArchivoPrueba,2024.1.1,None,2024-04-28 12h20.09.224697 -0500,
¿Recuerda  algún inconveniente que ha  experimentado en el camino de su residencia a su lugar de trabajo?,5,white,0,7,7,7,0,2,2,2,23.303864800000156,,,,,,,,,,,,,,,23.277727299999242,23.303864800000156,23.377476800000295,773583,001,2024-04-28_12h19.59.154,ArchivoPrueba,2024.1.1,None,2024-04-28 12h20.09.224697 -0500,
¿Recuerda si hay algún lugar u objeto en su camino hacia el trabajo que le llame la atención?,7,blue,0,7,7,7,0,3,3,3,23.404332399999475,,,,,,,,,,,,,,,23.377807299999404,23.404332399999475,23.476880899999742,773583,001,2024-04-28_12h19.59.154,ArchivoPrueba,2024.1.1,None,2024-04-28 12h20.09.224697 -0500,
" ¿Recuerda el recorrido desde la entrada de su lugar de trabajo hasta su oficina, donde realiza sus funciones?",9,yellow,0,7,7,7,0,4,4,4,23.50402899999972,,,,,,,,,,,,,,,23.477160799999183,23.50402899999972,23.576884699999937,773583,001,2024-04-28_12h19.59.154,ArchivoPrueba,2024.1.1,None,2024-04-28 12h20.09.224697 -0500,
¿Recuerda alguna actividad que realice durante los viajes de regreso a casa desde el trabajo para relajarse?,11,orange,0,7,7,7,0,5,5,5,23.60391879999952,,,,,,,,,,,,,,,23.577184800000396,23.60391879999952,23.676582500000222,773583,001,2024-04-28_12h19.59.154,ArchivoPrueba,2024.1.1,None,2024-04-28 12h20.09.224697 -0500,
¿Recuerda el trayecto que realiza desde su casa hasta el lugar donde realiza sus compras?,13,brown,0,7,7,7,0,6,6,6,23.703466599999956,,,,,,,,,,,,,,,23.676870999999664,23.703466599999956,23.776492799999687,773583,001,2024-04-28_12h19.59.154,ArchivoPrueba,2024.1.1,None,2024-04-28 12h20.09.224697 -0500,
¿Recuerda alguna situación divertida o interesante que haya experimentado durante el recorrido hacia el lugar de compras?,15,purple,0,7,7,7,0,7,7,7,23.80337789999976,,,,,,,,,,,,,,,23.776783900000737,23.80337789999976,23.87706529999923,773583,001,2024-04-28_12h19.59.154,ArchivoPrueba,2024.1.1,None,2024-04-28 12h20.09.224697 -0500,
 ¿Recuerda qué es lo primero que ve al llegar al lugar donde realiza sus compras?,17,green,0,7,7,7,0,8,8,8,23.903384799999913,,,,,,,,,,,,,,,23.877358300000196,23.903384799999913,23.977573399999528,773583,001,2024-04-28_12h19.59.154,ArchivoPrueba,2024.1.1,None,2024-04-28 12h20.09.224697 -0500,
¿Recuerda el recorrido desde su residencia hasta el centro de resonancia magnética?,19,red,0,7,7,7,0,9,9,9,24.003281999999672,,,,,,,,,,,,,,,23.977871200000664,24.003281999999672,24.076412399999754,773583,001,2024-04-28_12h19.59.154,ArchivoPrueba,2024.1.1,None,2024-04-28 12h20.09.224697 -0500,
None,21,white,0,7,7,7,0,10,10,10,24.103435799999716,,,,,,,,,,,,,,,24.076760800000557,24.103435799999716,24.17687449999903,773583,001,2024-04-28_12h19.59.154,ArchivoPrueba,2024.1.1,None,2024-04-28 12h20.09.224697 -0500,
None,23,blue,0,7,7,7,0,11,11,11,24.20309730000008,,,,,,,,,,,,,,,24.17714479999995,24.20309730000008,24.276415399999678,773583,001,2024-04-28_12h19.59.154,ArchivoPrueba,2024.1.1,None,2024-04-28 12h20.09.224697 -0500,
None,25,yellow,0,7,7,7,0,12,12,12,24.30332660000022,,,,,,,,,,,,,,,24.276772499999424,24.30332660000022,24.37651310000001,773583,001,2024-04-28_12h19.59.154,ArchivoPrueba,2024.1.1,None,2024-04-28 12h20.09.224697 -0500,
None,27,orange,0,7,7,7,0,13,13,13,24.40308189999996,,,,,,,,,,,,,,,24.376804999999877,24.40308189999996,24.47594179999942,773583,001,2024-04-28_12h19.59.154,ArchivoPrueba,2024.1.1,None,2024-04-28 12h20.09.224697 -0500,
None,29,brown,0,7,7,7,0,14,14,14,24.503138000000035,,,,,,,,,,,,,,,24.476262099999076,24.503138000000035,24.576249199999438,773583,001,2024-04-28_12h19.59.154,ArchivoPrueba,2024.1.1,None,2024-04-28 12h20.09.224697 -0500,
None,31,purple,0,7,7,7,0,15,15,15,24.60316050000074,,,,,,,,,,,,,,,24.57657499999914,24.60316050000074,24.676066199999696,773583,001,2024-04-28_12h19.59.154,ArchivoPrueba,2024.1.1,None,2024-04-28 12h20.09.224697 -0500,
None,33,green,0,7,7,7,0,16,16,16,24.703016199999183,,,,,,,,,,,,,,,24.67636499999935,24.703016199999183,24.77582219999931,773583,001,2024-04-28_12h19.59.154,ArchivoPrueba,2024.1.1,None,2024-04-28 12h20.09.224697 -0500,
None,35,red,0,7,7,7,0,17,17,17,24.802737800000614,,,,,,,,,,,,,,,24.776174999999057,24.802737800000614,24.87602700000025,773583,001,2024-04-28_12h19.59.154,ArchivoPrueba,2024.1.1,None,2024-04-28 12h20.09.224697 -0500,
None,37,white,0,7,7,7,0,18,18,18,24.90277579999929,,,,,,,,,,,,,,,24.8763042999999,24.90277579999929,24.976132899999357,773583,001,2024-04-28_12h19.59.154,ArchivoPrueba,2024.1.1,None,2024-04-28 12h20.09.224697 -0500,
None,39,blue,0,7,7,7,0,19,19,19,25.002344500000618,,,,,,,,,,,,,,,24.97643959999914,25.002344500000618,25.076334999999744,773583,001,2024-04-28_12h19.59.154,ArchivoPrueba,2024.1.1,None,2024-04-28 12h20.09.224697 -0500,
¿Recuerda alguna situación divertida o interesante que haya experimentado durante el recorrido hacia el lugar de compras?,15,purple,0,7,7,7,,,,,,,,,,,,,,,,,,,,,,,773583,001,2024-04-28_12h19.59.154,ArchivoPrueba,2024.1.1,None,2024-04-28 12h20.09.224697 -0500,
¿Recuerda el recorrido que realiza desde su cama hasta la cocina de su residencia?,1,green,0,8,8,8,0,0,0,0,26.10138519999964,,,,,,,,,,,,25.076800200000434,25.10079079999923,26.07512769999994,26.085274799999752,26.10138519999964,26.174597600000197,773583,001,2024-04-28_12h19.59.154,ArchivoPrueba,2024.1.1,None,2024-04-28 12h20.09.224697 -0500,
¿Recuerda el trayecto que hace desde su casa hasta su lugar de trabajo?,3,red,0,8,8,8,0,1,1,1,26.201355400000466,,,,,,,,,,,,,,,26.174926300000152,26.201355400000466,26.27471080000032,773583,001,2024-04-28_12h19.59.154,ArchivoPrueba,2024.1.1,None,2024-04-28 12h20.09.224697 -0500,
¿Recuerda  algún inconveniente que ha  experimentado en el camino de su residencia a su lugar de trabajo?,5,white,0,8,8,8,0,2,2,2,26.30132819999926,,,,,,,,,,,,,,,26.2749874000001,26.30132819999926,26.37453099999948,773583,001,2024-04-28_12h19.59.154,ArchivoPrueba,2024.1.1,None,2024-04-28 12h20.09.224697 -0500,
¿Recuerda si hay algún lugar u objeto en su camino hacia el trabajo que le llame la atención?,7,blue,0,8,8,8,0,3,3,3,26.40133640000022,,,,,,,,,,,,,,,26.374845399999685,26.40133640000022,26.474928999999975,773583,001,2024-04-28_12h19.59.154,ArchivoPrueba,2024.1.1,None,2024-04-28 12h20.09.224697 -0500,
" ¿Recuerda el recorrido desde la entrada de su lugar de trabajo hasta su oficina, donde realiza sus funciones?",9,yellow,0,8,8,8,0,4,4,4,26.501338199999736,,,,,,,,,,,,,,,26.475201999999626,26.501338199999736,26.57455300000038,773583,001,2024-04-28_12h19.59.154,ArchivoPrueba,2024.1.1,None,2024-04-28 12h20.09.224697 -0500,
¿Recuerda alguna actividad que realice durante los viajes de regreso a casa desde el trabajo para relajarse?,11,orange,0,8,8,8,0,5,5,5,26.6012269999992,,,,,,,,,,,,,,,26.574864700000035,26.6012269999992,26.674183200000698,773583,001,2024-04-28_12h19.59.154,ArchivoPrueba,2024.1.1,None,2024-04-28 12h20.09.224697 -0500,
¿Recuerda el trayecto que realiza desde su casa hasta el lugar donde realiza sus compras?,13,brown,0,8,8,8,0,6,6,6,26.701267099999313,,,,,,,,,,,,,,,26.67453729999943,26.701267099999313,26.774159700000382,773583,001,2024-04-28_12h19.59.154,ArchivoPrueba,2024.1.1,None,2024-04-28 12h20.09.224697 -0500,
¿Recuerda alguna situación divertida o interesante que haya experimentado durante el recorrido hacia el lugar de compras?,15,purple,0,8,8,8,0,7,7,7,26.801092399999106,,,,,,,,,,,,,,,26.774542799999836,26.801092399999106,26.87404289999904,773583,001,2024-04-28_12h19.59.154,ArchivoPrueba,2024.1.1,None,2024-04-28 12h20.09.224697 -0500,
 ¿Recuerda qué es lo primero que ve al llegar al lugar donde realiza sus compras?,17,green,0,8,8,8,0,8,8,8,26.901046200000565,,,,,,,,,,,,,,,26.874364699999205,26.901046200000565,26.973973599999226,773583,001,2024-04-28_12h19.59.154,ArchivoPrueba,2024.1.1,None,2024-04-28 12h20.09.224697 -0500,
¿Recuerda el recorrido desde su residencia hasta el centro de resonancia magnética?,19,red,0,8,8,8,0,9,9,9,27.001085599998987,,,,,,,,,,,,,,,26.974275900000066,27.001085599998987,27.073563199999626,773583,001,2024-04-28_12h19.59.154,ArchivoPrueba,2024.1.1,None,2024-04-28 12h20.09.224697 -0500,
None,21,white,0,8,8,8,0,10,10,10,27.100806000000375,,,,,,,,,,,,,,,27.073868800000128,27.100806000000375,27.173652199999196,773583,001,2024-04-28_12h19.59.154,ArchivoPrueba,2024.1.1,None,2024-04-28 12h20.09.224697 -0500,
None,23,blue,0,8,8,8,0,11,11,11,27.20052989999931,,,,,,,,,,,,,,,27.173936799999865,27.20052989999931,27.273551099999167,773583,001,2024-04-28_12h19.59.154,ArchivoPrueba,2024.1.1,None,2024-04-28 12h20.09.224697 -0500,
None,25,yellow,0,8,8,8,0,12,12,12,27.300375099999656,,,,,,,,,,,,,,,27.273883600000772,27.300375099999656,27.373774399999093,773583,001,2024-04-28_12h19.59.154,ArchivoPrueba,2024.1.1,None,2024-04-28 12h20.09.224697 -0500,
None,27,orange,0,8,8,8,0,13,13,13,27.40045370000007,,,,,,,,,,,,,,,27.37404869999955,27.40045370000007,27.47347599999921,773583,001,2024-04-28_12h19.59.154,ArchivoPrueba,2024.1.1,None,2024-04-28 12h20.09.224697 -0500,
None,29,brown,0,8,8,8,0,14,14,14,27.500494199999594,,,,,,,,,,,,,,,27.47381250000035,27.500494199999594,27.57423199999903,773583,001,2024-04-28_12h19.59.154,ArchivoPrueba,2024.1.1,None,2024-04-28 12h20.09.224697 -0500,
None,31,purple,0,8,8,8,0,15,15,15,27.600304899999173,,,,,,,,,,,,,,,27.57459369999924,27.600304899999173,27.67336459999933,773583,001,2024-04-28_12h19.59.154,ArchivoPrueba,2024.1.1,None,2024-04-28 12h20.09.224697 -0500,
None,33,green,0,8,8,8,0,16,16,16,27.70023620000029,,,,,,,,,,,,,,,27.673781499999677,27.70023620000029,27.773143299998992,773583,001,2024-04-28_12h19.59.154,ArchivoPrueba,2024.1.1,None,2024-04-28 12h20.09.224697 -0500,
None,35,red,0,8,8,8,0,17,17,17,27.80035829999906,,,,,,,,,,,,,,,27.773459000000003,27.80035829999906,27.872752299999775,773583,001,2024-04-28_12h19.59.154,ArchivoPrueba,2024.1.1,None,2024-04-28 12h20.09.224697 -0500,
None,37,white,0,8,8,8,0,18,18,18,27.900208400000338,,,,,,,,,,,,,,,27.87304519999998,27.900208400000338,27.972852999999304,773583,001,2024-04-28_12h19.59.154,ArchivoPrueba,2024.1.1,None,2024-04-28 12h20.09.224697 -0500,
None,39,blue,0,8,8,8,0,19,19,19,28.000073600000178,,,,,,,,,,,,,,,27.973144199999297,28.000073600000178,28.072822800000722,773583,001,2024-04-28_12h19.59.154,ArchivoPrueba,2024.1.1,None,2024-04-28 12h20.09.224697 -0500,
 ¿Recuerda qué es lo primero que ve al llegar al lugar donde realiza sus compras?,17,green,0,8,8,8,,,,,,,,,,,,,,,,,,,,,,,773583,001,2024-04-28_12h19.59.154,ArchivoPrueba,2024.1.1,None,2024-04-28 12h20.09.224697 -0500,
¿Recuerda el recorrido que realiza desde su cama hasta la cocina de su residencia?,1,green,0,9,9,9,0,0,0,0,29.099142900000516,,,,,,,,,,,,28.073172700000214,28.100081799999316,29.07256529999904,29.083314299999984,29.099142900000516,29.172022000000652,773583,001,2024-04-28_12h19.59.154,ArchivoPrueba,2024.1.1,None,2024-04-28 12h20.09.224697 -0500,
¿Recuerda el trayecto que hace desde su casa hasta su lugar de trabajo?,3,red,0,9,9,9,0,1,1,1,29.19919420000042,,,,,,,,,,,,,,,29.172311700000137,29.19919420000042,29.272054099999878,773583,001,2024-04-28_12h19.59.154,ArchivoPrueba,2024.1.1,None,2024-04-28 12h20.09.224697 -0500,
¿Recuerda  algún inconveniente que ha  experimentado en el camino de su residencia a su lugar de trabajo?,5,white,0,9,9,9,0,2,2,2,29.298923399999694,,,,,,,,,,,,,,,29.272342799999024,29.298923399999694,29.371751000000586,773583,001,2024-04-28_12h19.59.154,ArchivoPrueba,2024.1.1,None,2024-04-28 12h20.09.224697 -0500,
¿Recuerda si hay algún lugar u objeto en su camino hacia el trabajo que le llame la atención?,7,blue,0,9,9,9,0,3,3,3,29.398879599999418,,,,,,,,,,,,,,,29.372056000000157,29.398879599999418,29.471818899999562,773583,001,2024-04-28_12h19.59.154,ArchivoPrueba,2024.1.1,None,2024-04-28 12h20.09.224697 -0500,
" ¿Recuerda el recorrido desde la entrada de su lugar de trabajo hasta su oficina, donde realiza sus funciones?",9,yellow,0,9,9,9,0,4,4,4,29.49845540000024,,,,,,,,,,,,,,,29.472123499999725,29.49845540000024,29.57207759999983,773583,001,2024-04-28_12h19.59.154,ArchivoPrueba,2024.1.1,None,2024-04-28 12h20.09.224697 -0500,
¿Recuerda alguna actividad que realice durante los viajes de regreso a casa desde el trabajo para relajarse?,11,orange,0,9,9,9,0,5,5,5,29.598416400000133,,,,,,,,,,,,,,,29.572364699999525,29.598416400000133,29.67186860000038,773583,001,2024-04-28_12h19.59.154,ArchivoPrueba,2024.1.1,None,2024-04-28 12h20.09.224697 -0500,
¿Recuerda el trayecto que realiza desde su casa hasta el lugar donde realiza sus compras?,13,brown,0,9,9,9,0,6,6,6,29.69847699999991,,,,,,,,,,,,,,,29.672203599999193,29.69847699999991,29.772302299999865,773583,001,2024-04-28_12h19.59.154,ArchivoPrueba,2024.1.1,None,2024-04-28 12h20.09.224697 -0500,
¿Recuerda alguna situación divertida o interesante que haya experimentado durante el recorrido hacia el lugar de compras?,15,purple,0,9,9,9,0,7,7,7,29.798382599999968,,,,,,,,,,,,,,,29.77268809999987,29.798382599999968,29.87329040000077,773583,001,2024-04-28_12h19.59.154,ArchivoPrueba,2024.1.1,None,2024-04-28 12h20.09.224697 -0500,
 ¿Recuerda qué es lo primero que ve al llegar al lugar donde realiza sus compras?,17,green,0,9,9,9,0,8,8,8,29.898081999999704,,,,,,,,,,,,,,,29.87371929999972,29.898081999999704,29.973524999999427,773583,001,2024-04-28_12h19.59.154,ArchivoPrueba,2024.1.1,None,2024-04-28 12h20.09.224697 -0500,
¿Recuerda el recorrido desde su residencia hasta el centro de resonancia magnética?,19,red,0,9,9,9,0,9,9,9,29.997917299999244,,,,,,,,,,,,,,,29.974002900000414,29.997917299999244,30.073346999999558,773583,001,2024-04-28_12h19.59.154,ArchivoPrueba,2024.1.1,None,2024-04-28 12h20.09.224697 -0500,
None,21,white,0,9,9,9,0,10,10,10,30.098173500000485,,,,,,,,,,,,,,,30.07380000000012,30.098173500000485,30.170529900000474,773583,001,2024-04-28_12h19.59.154,ArchivoPrueba,2024.1.1,None,2024-04-28 12h20.09.224697 -0500,
None,23,blue,0,9,9,9,0,11,11,11,30.18394040000021,,,,,,,,,,,,,,,30.17082599999958,30.18394040000021,30.27098660000047,773583,001,2024-04-28_12h19.59.154,ArchivoPrueba,2024.1.1,None,2024-04-28 12h20.09.224697 -0500,
None,25,yellow,0,9,9,9,0,12,12,12,30.298141499999474,,,,,,,,,,,,,,,30.2712647999997,30.298141499999474,30.37084759999925,773583,001,2024-04-28_12h19.59.154,ArchivoPrueba,2024.1.1,None,2024-04-28 12h20.09.224697 -0500,
None,27,orange,0,9,9,9,0,13,13,13,30.39807280000059,,,,,,,,,,,,,,,30.371163899999374,30.39807280000059,30.470653099999254,773583,001,2024-04-28_12h19.59.154,ArchivoPrueba,2024.1.1,None,2024-04-28 12h20.09.224697 -0500,
None,29,brown,0,9,9,9,0,14,14,14,30.497434400000202,,,,,,,,,,,,,,,30.47094880000077,30.497434400000202,30.57070659999954,773583,001,2024-04-28_12h19.59.154,ArchivoPrueba,2024.1.1,None,2024-04-28 12h20.09.224697 -0500,
None,31,purple,0,9,9,9,0,15,15,15,30.59753719999935,,,,,,,,,,,,,,,30.570987799999784,30.59753719999935,30.671013299999686,773583,001,2024-04-28_12h19.59.154,ArchivoPrueba,2024.1.1,None,2024-04-28 12h20.09.224697 -0500,
None,33,green,0,9,9,9,0,16,16,16,30.697414799999024,,,,,,,,,,,,,,,30.67128489999959,30.697414799999024,30.770819299999857,773583,001,2024-04-28_12h19.59.154,ArchivoPrueba,2024.1.1,None,2024-04-28 12h20.09.224697 -0500,
None,35,red,0,9,9,9,0,17,17,17,30.79743360000066,,,,,,,,,,,,,,,30.771092599999974,30.79743360000066,30.87048440000035,773583,001,2024-04-28_12h19.59.154,ArchivoPrueba,2024.1.1,None,2024-04-28 12h20.09.224697 -0500,
None,37,white,0,9,9,9,0,18,18,18,30.897309699999823,,,,,,,,,,,,,,,30.870808199999374,30.897309699999823,30.970119199999317,773583,001,2024-04-28_12h19.59.154,ArchivoPrueba,2024.1.1,None,2024-04-28 12h20.09.224697 -0500,
None,39,blue,0,9,9,9,0,19,19,19,30.997348099999726,,,,,,,,,,,,,,,30.970446100000117,30.997348099999726,31.070370899999034,773583,001,2024-04-28_12h19.59.154,ArchivoPrueba,2024.1.1,None,2024-04-28 12h20.09.224697 -0500,
¿Recuerda el recorrido desde su residencia hasta el centro de resonancia magnética?,19,red,0,9,9,9,,,,,,,,,,,,,,,,,,,,,,,773583,001,2024-04-28_12h19.59.154,ArchivoPrueba,2024.1.1,None,2024-04-28 12h20.09.224697 -0500,
¿Recuerda el recorrido que realiza desde su cama hasta la cocina de su residencia?,1,green,0,10,10,10,0,0,0,0,32.09637280000061,,,,,,,,,,,,31.070826999999554,31.097337100000004,32.069577399999616,32.07937429999947,32.09637280000061,32.16932470000029,773583,001,2024-04-28_12h19.59.154,ArchivoPrueba,2024.1.1,None,2024-04-28 12h20.09.224697 -0500,
¿Recuerda el trayecto que hace desde su casa hasta su lugar de trabajo?,3,red,0,10,10,10,0,1,1,1,32.196166300000186,,,,,,,,,,,,,,,32.1697151999997,32.196166300000186,32.26958129999912,773583,001,2024-04-28_12h19.59.154,ArchivoPrueba,2024.1.1,None,2024-04-28 12h20.09.224697 -0500,
¿Recuerda  algún inconveniente que ha  experimentado en el camino de su residencia a su lugar de trabajo?,5,white,0,10,10,10,0,2,2,2,32.29624859999967,,,,,,,,,,,,,,,32.26987050000025,32.29624859999967,32.369552099999055,773583,001,2024-04-28_12h19.59.154,ArchivoPrueba,2024.1.1,None,2024-04-28 12h20.09.224697 -0500,
¿Recuerda si hay algún lugar u objeto en su camino hacia el trabajo que le llame la atención?,7,blue,0,10,10,10,0,3,3,3,32.39626219999991,,,,,,,,,,,,,,,32.3698590999993,32.39626219999991,32.469256599999426,773583,001,2024-04-28_12h19.59.154,ArchivoPrueba,2024.1.1,None,2024-04-28 12h20.09.224697 -0500,
" ¿Recuerda el recorrido desde la entrada de su lugar de trabajo hasta su oficina, donde realiza sus funciones?",9,yellow,0,10,10,10,0,4,4,4,32.496041200000036,,,,,,,,,,,,,,,32.46963460000006,32.496041200000036,32.56897930000014,773583,001,2024-04-28_12h19.59.154,ArchivoPrueba,2024.1.1,None,2024-04-28 12h20.09.224697 -0500,
¿Recuerda alguna actividad que realice durante los viajes de regreso a casa desde el trabajo para relajarse?,11,orange,0,10,10,10,0,5,5,5,32.596076199999516,,,,,,,,,,,,,,,32.569254800000635,32.596076199999516,32.66872300000068,773583,001,2024-04-28_12h19.59.154,ArchivoPrueba,2024.1.1,None,2024-04-28 12h20.09.224697 -0500,
¿Recuerda el trayecto que realiza desde su casa hasta el lugar donde realiza sus compras?,13,brown,0,10,10,10,0,6,6,6,32.695928600000116,,,,,,,,,,,,,,,32.66902259999915,32.695928600000116,32.76863219999905,773583,001,2024-04-28_12h19.59.154,ArchivoPrueba,2024.1.1,None,2024-04-28 12h20.09.224697 -0500,
¿Recuerda alguna situación divertida o interesante que haya experimentado durante el recorrido hacia el lugar de compras?,15,purple,0,10,10,10,0,7,7,7,32.79576669999915,,,,,,,,,,,,,,,32.768909899999926,32.79576669999915,32.86872120000044,773583,001,2024-04-28_12h19.59.154,ArchivoPrueba,2024.1.1,None,2024-04-28 12h20.09.224697 -0500,
 ¿Recuerda qué es lo primero que ve al llegar al lugar donde realiza sus compras?,17,green,0,10,10,10,0,8,8,8,32.89578470000015,,,,,,,,,,,,,,,32.86901709999984,32.89578470000015,32.96917399999984,773583,001,2024-04-28_12h19.59.154,ArchivoPrueba,2024.1.1,None,2024-04-28 12h20.09.224697 -0500,
¿Recuerda el recorrido desde su residencia hasta el centro de resonancia magnética?,19,red,0,10,10,10,0,9,9,9,32.995556800000486,,,,,,,,,,,,,,,32.96950130000005,32.995556800000486,33.06863010000052,773583,001,2024-04-28_12h19.59.154,ArchivoPrueba,2024.1.1,None,2024-04-28 12h20.09.224697 -0500,
None,21,white,0,10,10,10,0,10,10,10,33.095341300000655,,,,,,,,,,,,,,,33.06892770000013,33.095341300000655,33.168582099999185,773583,001,2024-04-28_12h19.59.154,ArchivoPrueba,2024.1.1,None,2024-04-28 12h20.09.224697 -0500,
None,23,blue,0,10,10,10,0,11,11,11,33.195448899999974,,,,,,,,,,,,,,,33.16898260000016,33.195448899999974,33.26806949999991,773583,001,2024-04-28_12h19.59.154,ArchivoPrueba,2024.1.1,None,2024-04-28 12h20.09.224697 -0500,
None,25,yellow,0,10,10,10,0,12,12,12,33.2953336999999,,,,,,,,,,,,,,,33.26836600000024,33.2953336999999,33.368917699999656,773583,001,2024-04-28_12h19.59.154,ArchivoPrueba,2024.1.1,None,2024-04-28 12h20.09.224697 -0500,
None,27,orange,0,10,10,10,0,13,13,13,33.395433600000615,,,,,,,,,,,,,,,33.369210400000156,33.395433600000615,33.46834680000029,773583,001,2024-04-28_12h19.59.154,ArchivoPrueba,2024.1.1,None,2024-04-28 12h20.09.224697 -0500,
None,29,brown,0,10,10,10,0,14,14,14,33.49532910000016,,,,,,,,,,,,,,,33.46866779999982,33.49532910000016,33.56937189999917,773583,001,2024-04-28_12h19.59.154,ArchivoPrueba,2024.1.1,None,2024-04-28 12h20.09.224697 -0500,
None,31,purple,0,10,10,10,0,15,15,15,33.595084900000074,,,,,,,,,,,,,,,33.569661699999415,33.595084900000074,33.668959700000414,773583,001,2024-04-28_12h19.59.154,ArchivoPrueba,2024.1.1,None,2024-04-28 12h20.09.224697 -0500,
None,33,green,0,10,10,10,0,16,16,16,33.6951511999996,,,,,,,,,,,,,,,33.66932570000063,33.6951511999996,33.76799790000041,773583,001,2024-04-28_12h19.59.154,ArchivoPrueba,2024.1.1,None,2024-04-28 12h20.09.224697 -0500,
None,35,red,0,10,10,10,0,17,17,17,33.79512070000055,,,,,,,,,,,,,,,33.76841860000059,33.79512070000055,33.86830159999954,773583,001,2024-04-28_12h19.59.154,ArchivoPrueba,2024.1.1,None,2024-04-28 12h20.09.224697 -0500,
None,37,white,0,10,10,10,0,18,18,18,33.895028799999636,,,,,,,,,,,,,,,33.868575299999065,33.895028799999636,33.967925200000536,773583,001,2024-04-28_12h19.59.154,ArchivoPrueba,2024.1.1,None,2024-04-28 12h20.09.224697 -0500,
None,39,blue,0,10,10,10,0,19,19,19,33.99490130000049,,,,,,,,,,,,,,,33.968331500000204,33.99490130000049,34.067836300000636,773583,001,2024-04-28_12h19.59.154,ArchivoPrueba,2024.1.1,None,2024-04-28 12h20.09.224697 -0500,
None,21,white,0,10,10,10,,,,,,,,,,,,,,,,,,,,,,,773583,001,2024-04-28_12h19.59.154,ArchivoPrueba,2024.1.1,None,2024-04-28 12h20.09.224697 -0500,
¿Recuerda el recorrido que realiza desde su cama hasta la cocina de su residencia?,1,green,0,11,11,11,0,0,0,0,35.094082999999955,,,,,,,,,,,,34.06830660000014,34.09481919999962,35.06724570000006,35.077431399999114,35.094082999999955,35.16732240000056,773583,001,2024-04-28_12h19.59.154,ArchivoPrueba,2024.1.1,None,2024-04-28 12h20.09.224697 -0500,
¿Recuerda el trayecto que hace desde su casa hasta su lugar de trabajo?,3,red,0,11,11,11,0,1,1,1,35.19397659999959,,,,,,,,,,,,,,,35.16761530000076,35.19397659999959,35.26719029999913,773583,001,2024-04-28_12h19.59.154,ArchivoPrueba,2024.1.1,None,2024-04-28 12h20.09.224697 -0500,
¿Recuerda  algún inconveniente que ha  experimentado en el camino de su residencia a su lugar de trabajo?,5,white,0,11,11,11,0,2,2,2,35.29373619999933,,,,,,,,,,,,,,,35.267499300000054,35.29373619999933,35.366618500000186,773583,001,2024-04-28_12h19.59.154,ArchivoPrueba,2024.1.1,None,2024-04-28 12h20.09.224697 -0500,
¿Recuerda si hay algún lugar u objeto en su camino hacia el trabajo que le llame la atención?,7,blue,0,11,11,11,0,3,3,3,35.39371349999965,,,,,,,,,,,,,,,35.36692349999976,35.39371349999965,35.46653909999986,773583,001,2024-04-28_12h19.59.154,ArchivoPrueba,2024.1.1,None,2024-04-28 12h20.09.224697 -0500,
" ¿Recuerda el recorrido desde la entrada de su lugar de trabajo hasta su oficina, donde realiza sus funciones?",9,yellow,0,11,11,11,0,4,4,4,35.493519800000286,,,,,,,,,,,,,,,35.466833399999814,35.493519800000286,35.56676530000004,773583,001,2024-04-28_12h19.59.154,ArchivoPrueba,2024.1.1,None,2024-04-28 12h20.09.224697 -0500,
¿Recuerda alguna actividad que realice durante los viajes de regreso a casa desde el trabajo para relajarse?,11,orange,0,11,11,11,0,5,5,5,35.59341080000013,,,,,,,,,,,,,,,35.567076199999065,35.59341080000013,35.666653599999336,773583,001,2024-04-28_12h19.59.154,ArchivoPrueba,2024.1.1,None,2024-04-28 12h20.09.224697 -0500,
¿Recuerda el trayecto que realiza desde su casa hasta el lugar donde realiza sus compras?,13,brown,0,11,11,11,0,6,6,6,35.69321239999954,,,,,,,,,,,,,,,35.66692680000051,35.69321239999954,35.76650569999947,773583,001,2024-04-28_12h19.59.154,ArchivoPrueba,2024.1.1,None,2024-04-28 12h20.09.224697 -0500,
¿Recuerda alguna situación divertida o interesante que haya experimentado durante el recorrido hacia el lugar de compras?,15,purple,0,11,11,11,0,7,7,7,35.79343169999993,,,,,,,,,,,,,,,35.76678179999908,35.79343169999993,35.86750000000029,773583,001,2024-04-28_12h19.59.154,ArchivoPrueba,2024.1.1,None,2024-04-28 12h20.09.224697 -0500,
 ¿Recuerda qué es lo primero que ve al llegar al lugar donde realiza sus compras?,17,green,0,11,11,11,0,8,8,8,35.89317259999916,,,,,,,,,,,,,,,35.86779890000071,35.89317259999916,36.18389550000029,773583,001,2024-04-28_12h19.59.154,ArchivoPrueba,2024.1.1,None,2024-04-28 12h20.09.224697 -0500,
¿Recuerda el recorrido desde su residencia hasta el centro de resonancia magnética?,19,red,0,11,11,11,0,9,9,9,36.23150689999966,,,,,,,,,,,,,,,36.18442279999908,,36.19034730000021,773583,001,2024-04-28_12h19.59.154,ArchivoPrueba,2024.1.1,None,2024-04-28 12h20.09.224697 -0500,
None,21,white,0,11,11,11,0,10,10,10,36.23150689999966,,,,,,,,,,,,,,,36.19095220000054,,36.19624269999986,773583,001,2024-04-28_12h19.59.154,ArchivoPrueba,2024.1.1,None,2024-04-28 12h20.09.224697 -0500,
None,23,blue,0,11,11,11,0,11,11,11,36.23150689999966,,,,,,,,,,,,,,,36.1968366000001,36.23150689999966,36.29767170000014,773583,001,2024-04-28_12h19.59.154,ArchivoPrueba,2024.1.1,None,2024-04-28 12h20.09.224697 -0500,
None,25,yellow,0,11,11,11,0,12,12,12,36.34265839999898,,,,,,,,,,,,,,,36.29796999999962,36.34265839999898,36.37813069999902,773583,001,2024-04-28_12h19.59.154,ArchivoPrueba,2024.1.1,None,2024-04-28 12h20.09.224697 -0500,
None,27,orange,0,11,11,11,0,13,13,13,36.39119810000011,,,,,,,,,,,,,,,36.37844170000062,36.39119810000011,36.47906139999941,773583,001,2024-04-28_12h19.59.154,ArchivoPrueba,2024.1.1,None,2024-04-28 12h20.09.224697 -0500,
None,29,brown,0,11,11,11,0,14,14,14,36.491517000000385,,,,,,,,,,,,,,,36.47938129999966,36.491517000000385,36.580133400000705,773583,001,2024-04-28_12h19.59.154,ArchivoPrueba,2024.1.1,None,2024-04-28 12h20.09.224697 -0500,
None,31,purple,0,11,11,11,0,15,15,15,36.607789100000446,,,,,,,,,,,,,,,36.58057550000012,36.607789100000446,36.681192199999714,773583,001,2024-04-28_12h19.59.154,ArchivoPrueba,2024.1.1,None,2024-04-28 12h20.09.224697 -0500,
None,33,green,0,11,11,11,0,16,16,16,36.70775350000076,,,,,,,,,,,,,,,36.681597700000566,36.70775350000076,36.777870100000655,773583,001,2024-04-28_12h19.59.154,ArchivoPrueba,2024.1.1,None,2024-04-28 12h20.09.224697 -0500,
None,35,red,0,11,11,11,0,17,17,17,36.79088210000009,,,,,,,,,,,,,,,36.77822480000032,36.79088210000009,36.88015549999909,773583,001,2024-04-28_12h19.59.154,ArchivoPrueba,2024.1.1,None,2024-04-28 12h20.09.224697 -0500,
None,37,white,0,11,11,11,0,18,18,18,36.9075627000002,,,,,,,,,,,,,,,36.88059459999931,36.9075627000002,36.98332879999907,773583,001,2024-04-28_12h19.59.154,ArchivoPrueba,2024.1.1,None,2024-04-28 12h20.09.224697 -0500,
None,39,blue,0,11,11,11,0,19,19,19,37.007582799999,,,,,,,,,,,,,,,36.98382660000061,37.007582799999,37.07803899999999,773583,001,2024-04-28_12h19.59.154,ArchivoPrueba,2024.1.1,None,2024-04-28 12h20.09.224697 -0500,
None,23,blue,0,11,11,11,,,,,,,,,,,,,,,,,,,,,,,773583,001,2024-04-28_12h19.59.154,ArchivoPrueba,2024.1.1,None,2024-04-28 12h20.09.224697 -0500,
¿Recuerda el recorrido que realiza desde su cama hasta la cocina de su residencia?,1,green,0,12,12,12,0,0,0,0,38.10693700000047,,,,,,,,,,,,37.07853780000005,37.107412999999724,38.08046439999998,38.09214760000032,38.10693700000047,38.17721829999937,773583,001,2024-04-28_12h19.59.154,ArchivoPrueba,2024.1.1,None,2024-04-28 12h20.09.224697 -0500,
¿Recuerda el trayecto que hace desde su casa hasta su lugar de trabajo?,3,red,0,12,12,12,0,1,1,1,38.19028839999919,,,,,,,,,,,,,,,38.17760140000064,38.19028839999919,38.27772089999962,773583,001,2024-04-28_12h19.59.154,ArchivoPrueba,2024.1.1,None,2024-04-28 12h20.09.224697 -0500,
¿Recuerda  algún inconveniente que ha  experimentado en el camino de su residencia a su lugar de trabajo?,5,white,0,12,12,12,0,2,2,2,38.29042929999923,,,,,,,,,,,,,,,38.27813799999967,38.29042929999923,38.37715609999941,773583,001,2024-04-28_12h19.59.154,ArchivoPrueba,2024.1.1,None,2024-04-28 12h20.09.224697 -0500,
¿Recuerda si hay algún lugar u objeto en su camino hacia el trabajo que le llame la atención?,7,blue,0,12,12,12,0,3,3,3,38.39011609999943,,,,,,,,,,,,,,,38.377564299998994,38.39011609999943,38.477259199999025,773583,001,2024-04-28_12h19.59.154,ArchivoPrueba,2024.1.1,None,2024-04-28 12h20.09.224697 -0500,
" ¿Recuerda el recorrido desde la entrada de su lugar de trabajo hasta su oficina, donde realiza sus funciones?",9,yellow,0,12,12,12,0,4,4,4,38.49003620000076,,,,,,,,,,,,,,,38.47774879999997,38.49003620000076,38.576745700000174,773583,001,2024-04-28_12h19.59.154,ArchivoPrueba,2024.1.1,None,2024-04-28 12h20.09.224697 -0500,
¿Recuerda alguna actividad que realice durante los viajes de regreso a casa desde el trabajo para relajarse?,11,orange,0,12,12,12,0,5,5,5,38.59020860000055,,,,,,,,,,,,,,,38.577068299999155,38.59020860000055,38.677476700000625,773583,001,2024-04-28_12h19.59.154,ArchivoPrueba,2024.1.1,None,2024-04-28 12h20.09.224697 -0500,
¿Recuerda el trayecto que realiza desde su casa hasta el lugar donde realiza sus compras?,13,brown,0,12,12,12,0,6,6,6,38.69000600000072,,,,,,,,,,,,,,,38.677769399999306,38.69000600000072,38.780598199999076,773583,001,2024-04-28_12h19.59.154,ArchivoPrueba,2024.1.1,None,2024-04-28 12h20.09.224697 -0500,
¿Recuerda alguna situación divertida o interesante que haya experimentado durante el recorrido hacia el lugar de compras?,15,purple,0,12,12,12,0,7,7,7,38.80640759999915,,,,,,,,,,,,,,,38.78107970000019,38.80640759999915,38.8792267000008,773583,001,2024-04-28_12h19.59.154,ArchivoPrueba,2024.1.1,None,2024-04-28 12h20.09.224697 -0500,
 ¿Recuerda qué es lo primero que ve al llegar al lugar donde realiza sus compras?,17,green,0,12,12,12,0,8,8,8,38.90620080000008,,,,,,,,,,,,,,,38.87984359999973,38.90620080000008,38.97645209999973,773583,001,2024-04-28_12h19.59.154,ArchivoPrueba,2024.1.1,None,2024-04-28 12h20.09.224697 -0500,
¿Recuerda el recorrido desde su residencia hasta el centro de resonancia magnética?,19,red,0,12,12,12,0,9,9,9,38.98954579999918,,,,,,,,,,,,,,,38.976749699999345,38.98954579999918,39.076892600000065,773583,001,2024-04-28_12h19.59.154,ArchivoPrueba,2024.1.1,None,2024-04-28 12h20.09.224697 -0500,
None,21,white,0,12,12,12,0,10,10,10,39.0895445999995,,,,,,,,,,,,,,,39.07735180000054,39.0895445999995,39.17713659999936,773583,001,2024-04-28_12h19.59.154,ArchivoPrueba,2024.1.1,None,2024-04-28 12h20.09.224697 -0500,
None,23,blue,0,12,12,12,0,11,11,11,39.18945490000078,,,,,,,,,,,,,,,39.177477799999906,39.18945490000078,39.27632719999929,773583,001,2024-04-28_12h19.59.154,ArchivoPrueba,2024.1.1,None,2024-04-28 12h20.09.224697 -0500,
None,25,yellow,0,12,12,12,0,12,12,12,39.28940309999962,,,,,,,,,,,,,,,39.27680899999905,39.28940309999962,39.376025699999445,773583,001,2024-04-28_12h19.59.154,ArchivoPrueba,2024.1.1,None,2024-04-28 12h20.09.224697 -0500,
None,27,orange,0,12,12,12,0,13,13,13,39.38936309999917,,,,,,,,,,,,,,,39.376396899999236,39.38936309999917,39.476117899999736,773583,001,2024-04-28_12h19.59.154,ArchivoPrueba,2024.1.1,None,2024-04-28 12h20.09.224697 -0500,
None,29,brown,0,12,12,12,0,14,14,14,39.48949519999951,,,,,,,,,,,,,,,39.476509399999486,39.48949519999951,39.57602889999907,773583,001,2024-04-28_12h19.59.154,ArchivoPrueba,2024.1.1,None,2024-04-28 12h20.09.224697 -0500,
None,31,purple,0,12,12,12,0,15,15,15,39.58905070000037,,,,,,,,,,,,,,,39.5763005000008,39.58905070000037,39.67616149999958,773583,001,2024-04-28_12h19.59.154,ArchivoPrueba,2024.1.1,None,2024-04-28 12h20.09.224697 -0500,
None,33,green,0,12,12,12,0,16,16,16,39.68892210000013,,,,,,,,,,,,,,,39.67645369999991,39.68892210000013,39.7757330000004,773583,001,2024-04-28_12h19.59.154,ArchivoPrueba,2024.1.1,None,2024-04-28 12h20.09.224697 -0500,
None,35,red,0,12,12,12,0,17,17,17,39.788880599999175,,,,,,,,,,,,,,,39.77600789999997,39.788880599999175,39.87579360000018,773583,001,2024-04-28_12h19.59.154,ArchivoPrueba,2024.1.1,None,2024-04-28 12h20.09.224697 -0500,
None,37,white,0,12,12,12,0,18,18,18,39.88883750000059,,,,,,,,,,,,,,,39.876071700000466,39.88883750000059,39.976145700000416,773583,001,2024-04-28_12h19.59.154,ArchivoPrueba,2024.1.1,None,2024-04-28 12h20.09.224697 -0500,
None,39,blue,0,12,12,12,0,19,19,19,39.98875939999925,,,,,,,,,,,,,,,39.97648939999999,39.98875939999925,40.07541669999955,773583,001,2024-04-28_12h19.59.154,ArchivoPrueba,2024.1.1,None,2024-04-28 12h20.09.224697 -0500,
None,25,yellow,0,12,12,12,,,,,,,,,,,,,,,,,,,,,,,773583,001,2024-04-28_12h19.59.154,ArchivoPrueba,2024.1.1,None,2024-04-28 12h20.09.224697 -0500,
¿Recuerda el recorrido que realiza desde su cama hasta la cocina de su residencia?,1,green,0,13,13,13,0,0,0,0,41.1048695999998,,,,,,,,,,,,40.075820199999725,40.08866189999935,41.0751595999991,41.08447519999936,41.1048695999998,41.174639599999864,773583,001,2024-04-28_12h19.59.154,ArchivoPrueba,2024.1.1,None,2024-04-28 12h20.09.224697 -0500,
¿Recuerda el trayecto que hace desde su casa hasta su lugar de trabajo?,3,red,0,13,13,13,0,1,1,1,41.187855899999704,,,,,,,,,,,,,,,41.174955299999056,41.187855899999704,41.274684800000614,773583,001,2024-04-28_12h19.59.154,ArchivoPrueba,2024.1.1,None,2024-04-28 12h20.09.224697 -0500,
¿Recuerda  algún inconveniente que ha  experimentado en el camino de su residencia a su lugar de trabajo?,5,white,0,13,13,13,0,2,2,2,41.28777690000061,,,,,,,,,,,,,,,41.27500340000006,41.28777690000061,41.37445250000019,773583,001,2024-04-28_12h19.59.154,ArchivoPrueba,2024.1.1,None,2024-04-28 12h20.09.224697 -0500,
¿Recuerda si hay algún lugar u objeto en su camino hacia el trabajo que le llame la atención?,7,blue,0,13,13,13,0,3,3,3,41.38780969999971,,,,,,,,,,,,,,,41.37478989999909,41.38780969999971,41.474255999999514,773583,001,2024-04-28_12h19.59.154,ArchivoPrueba,2024.1.1,None,2024-04-28 12h20.09.224697 -0500,
" ¿Recuerda el recorrido desde la entrada de su lugar de trabajo hasta su oficina, donde realiza sus funciones?",9,yellow,0,13,13,13,0,4,4,4,41.48756390000017,,,,,,,,,,,,,,,41.474528999999166,41.48756390000017,41.574386700000105,773583,001,2024-04-28_12h19.59.154,ArchivoPrueba,2024.1.1,None,2024-04-28 12h20.09.224697 -0500,
¿Recuerda alguna actividad que realice durante los viajes de regreso a casa desde el trabajo para relajarse?,11,orange,0,13,13,13,0,5,5,5,41.58765900000071,,,,,,,,,,,,,,,41.57473609999943,41.58765900000071,41.67406420000043,773583,001,2024-04-28_12h19.59.154,ArchivoPrueba,2024.1.1,None,2024-04-28 12h20.09.224697 -0500,
¿Recuerda el trayecto que realiza desde su casa hasta el lugar donde realiza sus compras?,13,brown,0,13,13,13,0,6,6,6,41.68713360000038,,,,,,,,,,,,,,,41.674444099999164,41.68713360000038,41.77432050000061,773583,001,2024-04-28_12h19.59.154,ArchivoPrueba,2024.1.1,None,2024-04-28 12h20.09.224697 -0500,
¿Recuerda alguna situación divertida o interesante que haya experimentado durante el recorrido hacia el lugar de compras?,15,purple,0,13,13,13,0,7,7,7,41.787420500000735,,,,,,,,,,,,,,,41.77472289999969,41.787420500000735,41.874373299999206,773583,001,2024-04-28_12h19.59.154,ArchivoPrueba,2024.1.1,None,2024-04-28 12h20.09.224697 -0500,
 ¿Recuerda qué es lo primero que ve al llegar al lugar donde realiza sus compras?,17,green,0,13,13,13,0,8,8,8,41.88711130000047,,,,,,,,,,,,,,,41.87476570000035,41.88711130000047,41.97385509999913,773583,001,2024-04-28_12h19.59.154,ArchivoPrueba,2024.1.1,None,2024-04-28 12h20.09.224697 -0500,
¿Recuerda el recorrido desde su residencia hasta el centro de resonancia magnética?,19,red,0,13,13,13,0,9,9,9,41.98714590000054,,,,,,,,,,,,,,,41.97415109999929,41.98714590000054,42.07395320000069,773583,001,2024-04-28_12h19.59.154,ArchivoPrueba,2024.1.1,None,2024-04-28 12h20.09.224697 -0500,
None,21,white,0,13,13,13,0,10,10,10,42.0869533999994,,,,,,,,,,,,,,,42.07427579999967,42.0869533999994,42.17396480000025,773583,001,2024-04-28_12h19.59.154,ArchivoPrueba,2024.1.1,None,2024-04-28 12h20.09.224697 -0500,
None,23,blue,0,13,13,13,0,11,11,11,42.18685379999988,,,,,,,,,,,,,,,42.174242799999774,42.18685379999988,42.27385660000073,773583,001,2024-04-28_12h19.59.154,ArchivoPrueba,2024.1.1,None,2024-04-28 12h20.09.224697 -0500,
None,25,yellow,0,13,13,13,0,12,12,12,42.28657089999979,,,,,,,,,,,,,,,42.27416380000068,42.28657089999979,42.37378379999973,773583,001,2024-04-28_12h19.59.154,ArchivoPrueba,2024.1.1,None,2024-04-28 12h20.09.224697 -0500,
None,27,orange,0,13,13,13,0,13,13,13,42.38658149999901,,,,,,,,,,,,,,,42.37418989999969,42.38658149999901,42.47423990000061,773583,001,2024-04-28_12h19.59.154,ArchivoPrueba,2024.1.1,None,2024-04-28 12h20.09.224697 -0500,
None,29,brown,0,13,13,13,0,14,14,14,42.48647510000046,,,,,,,,,,,,,,,42.47451360000014,42.48647510000046,42.573805699999866,773583,001,2024-04-28_12h19.59.154,ArchivoPrueba,2024.1.1,None,2024-04-28 12h20.09.224697 -0500,
None,31,purple,0,13,13,13,0,15,15,15,42.58661530000063,,,,,,,,,,,,,,,42.574119599999904,42.58661530000063,42.67360929999995,773583,001,2024-04-28_12h19.59.154,ArchivoPrueba,2024.1.1,None,2024-04-28 12h20.09.224697 -0500,
None,33,green,0,13,13,13,0,16,16,16,42.68648089999988,,,,,,,,,,,,,,,42.673941600000035,42.68648089999988,42.773199100000056,773583,001,2024-04-28_12h19.59.154,ArchivoPrueba,2024.1.1,None,2024-04-28 12h20.09.224697 -0500,
None,35,red,0,13,13,13,0,17,17,17,42.78665720000026,,,,,,,,,,,,,,,42.77347069999996,42.78665720000026,42.873392199999216,773583,001,2024-04-28_12h19.59.154,ArchivoPrueba,2024.1.1,None,2024-04-28 12h20.09.224697 -0500,
None,37,white,0,13,13,13,0,18,18,18,42.88609539999925,,,,,,,,,,,,,,,42.87369249999938,42.88609539999925,42.97315619999972,773583,001,2024-04-28_12h19.59.154,ArchivoPrueba,2024.1.1,None,2024-04-28 12h20.09.224697 -0500,
None,39,blue,0,13,13,13,0,19,19,19,42.98613160000059,,,,,,,,,,,,,,,42.97343340000043,42.98613160000059,43.07292050000069,773583,001,2024-04-28_12h19.59.154,ArchivoPrueba,2024.1.1,None,2024-04-28 12h20.09.224697 -0500,
None,27,orange,0,13,13,13,,,,,,,,,,,,,,,,,,,,,,,773583,001,2024-04-28_12h19.59.154,ArchivoPrueba,2024.1.1,None,2024-04-28 12h20.09.224697 -0500,
¿Recuerda el recorrido que realiza desde su cama hasta la cocina de su residencia?,1,green,0,14,14,14,0,0,0,0,44.101735300000655,,,,,,,,,,,,43.07343889999902,43.10307079999984,44.07240780000029,44.08275169999979,44.101735300000655,44.17180170000029,773583,001,2024-04-28_12h19.59.154,ArchivoPrueba,2024.1.1,None,2024-04-28 12h20.09.224697 -0500,
¿Recuerda el trayecto que hace desde su casa hasta su lugar de trabajo?,3,red,0,14,14,14,0,1,1,1,44.185068599999795,,,,,,,,,,,,,,,44.17207740000049,44.185068599999795,44.27332550000028,773583,001,2024-04-28_12h19.59.154,ArchivoPrueba,2024.1.1,None,2024-04-28 12h20.09.224697 -0500,
¿Recuerda  algún inconveniente que ha  experimentado en el camino de su residencia a su lugar de trabajo?,5,white,0,14,14,14,0,2,2,2,44.28629059999912,,,,,,,,,,,,,,,44.273655700000745,44.28629059999912,44.37285730000076,773583,001,2024-04-28_12h19.59.154,ArchivoPrueba,2024.1.1,None,2024-04-28 12h20.09.224697 -0500,
¿Recuerda si hay algún lugar u objeto en su camino hacia el trabajo que le llame la atención?,7,blue,0,14,14,14,0,3,3,3,44.384709199999634,,,,,,,,,,,,,,,44.37317079999957,44.384709199999634,44.473184700000274,773583,001,2024-04-28_12h19.59.154,ArchivoPrueba,2024.1.1,None,2024-04-28 12h20.09.224697 -0500,
" ¿Recuerda el recorrido desde la entrada de su lugar de trabajo hasta su oficina, donde realiza sus funciones?",9,yellow,0,14,14,14,0,4,4,4,44.48553119999997,,,,,,,,,,,,,,,44.47346309999921,44.48553119999997,44.57222229999934,773583,001,2024-04-28_12h19.59.154,ArchivoPrueba,2024.1.1,None,2024-04-28 12h20.09.224697 -0500,
¿Recuerda alguna actividad que realice durante los viajes de regreso a casa desde el trabajo para relajarse?,11,orange,0,14,14,14,0,5,5,5,44.585078899999644,,,,,,,,,,,,,,,44.57251340000039,44.585078899999644,44.67148199999974,773583,001,2024-04-28_12h19.59.154,ArchivoPrueba,2024.1.1,None,2024-04-28 12h20.09.224697 -0500,
¿Recuerda el trayecto que realiza desde su casa hasta el lugar donde realiza sus compras?,13,brown,0,14,14,14,0,6,6,6,44.68461389999902,,,,,,,,,,,,,,,44.67187439999907,44.68461389999902,44.77182240000002,773583,001,2024-04-28_12h19.59.154,ArchivoPrueba,2024.1.1,None,2024-04-28 12h20.09.224697 -0500,
¿Recuerda alguna situación divertida o interesante que haya experimentado durante el recorrido hacia el lugar de compras?,15,purple,0,14,14,14,0,7,7,7,44.78464299999905,,,,,,,,,,,,,,,44.772234000000026,44.78464299999905,44.87135130000024,773583,001,2024-04-28_12h19.59.154,ArchivoPrueba,2024.1.1,None,2024-04-28 12h20.09.224697 -0500,
 ¿Recuerda qué es lo primero que ve al llegar al lugar donde realiza sus compras?,17,green,0,14,14,14,0,8,8,8,44.8845450000008,,,,,,,,,,,,,,,44.8716887999999,44.8845450000008,44.98991550000028,773583,001,2024-04-28_12h19.59.154,ArchivoPrueba,2024.1.1,None,2024-04-28 12h20.09.224697 -0500,
¿Recuerda el recorrido desde su residencia hasta el centro de resonancia magnética?,19,red,0,14,14,14,0,9,9,9,45.032626599999276,,,,,,,,,,,,,,,44.99025000000074,45.032626599999276,45.0769235000007,773583,001,2024-04-28_12h19.59.154,ArchivoPrueba,2024.1.1,None,2024-04-28 12h20.09.224697 -0500,
None,21,white,0,14,14,14,0,10,10,10,45.15824369999973,,,,,,,,,,,,,,,45.07770960000016,45.15824369999973,45.16933579999932,773583,001,2024-04-28_12h19.59.154,ArchivoPrueba,2024.1.1,None,2024-04-28 12h20.09.224697 -0500,
None,23,blue,0,14,14,14,0,11,11,11,45.210101299999224,,,,,,,,,,,,,,,45.1698164999998,45.210101299999224,45.30646449999949,773583,001,2024-04-28_12h19.59.154,ArchivoPrueba,2024.1.1,None,2024-04-28 12h20.09.224697 -0500,
None,25,yellow,0,14,14,14,0,12,12,12,45.34091789999911,,,,,,,,,,,,,,,45.30702910000036,45.34091789999911,45.38776680000046,773583,001,2024-04-28_12h19.59.154,ArchivoPrueba,2024.1.1,None,2024-04-28 12h20.09.224697 -0500,
None,27,orange,0,14,14,14,0,13,13,13,45.40021669999987,,,,,,,,,,,,,,,45.38810960000046,45.40021669999987,45.477199299999484,773583,001,2024-04-28_12h19.59.154,ArchivoPrueba,2024.1.1,None,2024-04-28 12h20.09.224697 -0500,
None,29,brown,0,14,14,14,0,14,14,14,45.50491839999995,,,,,,,,,,,,,,,45.47784649999994,45.50491839999995,45.57210339999983,773583,001,2024-04-28_12h19.59.154,ArchivoPrueba,2024.1.1,None,2024-04-28 12h20.09.224697 -0500,
None,31,purple,0,14,14,14,0,15,15,15,45.583929700000226,,,,,,,,,,,,,,,45.57238540000071,45.583929700000226,45.670627600000444,773583,001,2024-04-28_12h19.59.154,ArchivoPrueba,2024.1.1,None,2024-04-28 12h20.09.224697 -0500,
None,33,green,0,14,14,14,0,16,16,16,45.683745099999214,,,,,,,,,,,,,,,45.670960899999045,45.683745099999214,45.77026889999979,773583,001,2024-04-28_12h19.59.154,ArchivoPrueba,2024.1.1,None,2024-04-28 12h20.09.224697 -0500,
None,35,red,0,14,14,14,0,17,17,17,45.78372160000072,,,,,,,,,,,,,,,45.77055929999915,45.78372160000072,45.870204299999386,773583,001,2024-04-28_12h19.59.154,ArchivoPrueba,2024.1.1,None,2024-04-28 12h20.09.224697 -0500,
None,37,white,0,14,14,14,0,18,18,18,45.88389280000047,,,,,,,,,,,,,,,45.870473400000265,45.88389280000047,45.97157189999962,773583,001,2024-04-28_12h19.59.154,ArchivoPrueba,2024.1.1,None,2024-04-28 12h20.09.224697 -0500,
None,39,blue,0,14,14,14,0,19,19,19,45.983598099999654,,,,,,,,,,,,,,,45.97187610000037,45.983598099999654,46.071184899999935,773583,001,2024-04-28_12h19.59.154,ArchivoPrueba,2024.1.1,None,2024-04-28 12h20.09.224697 -0500,
None,29,brown,0,14,14,14,,,,,,,,,,,,,,,,,,,,,,,773583,001,2024-04-28_12h19.59.154,ArchivoPrueba,2024.1.1,None,2024-04-28 12h20.09.224697 -0500,
¿Recuerda el recorrido que realiza desde su cama hasta la cocina de su residencia?,1,green,0,15,15,15,0,0,0,0,47.09927169999901,,,,,,,,,,,,46.071527099999,46.101293600000645,47.06996169999911,47.07909049999944,47.09927169999901,47.169450499999584,773583,001,2024-04-28_12h19.59.154,ArchivoPrueba,2024.1.1,None,2024-04-28 12h20.09.224697 -0500,
¿Recuerda el trayecto que hace desde su casa hasta su lugar de trabajo?,3,red,0,15,15,15,0,1,1,1,47.18266279999989,,,,,,,,,,,,,,,47.16992329999994,47.18266279999989,47.27258389999952,773583,001,2024-04-28_12h19.59.154,ArchivoPrueba,2024.1.1,None,2024-04-28 12h20.09.224697 -0500,
¿Recuerda  algún inconveniente que ha  experimentado en el camino de su residencia a su lugar de trabajo?,5,white,0,15,15,15,0,2,2,2,47.299353299998984,,,,,,,,,,,,,,,47.27301459999944,47.299353299998984,47.37215560000004,773583,001,2024-04-28_12h19.59.154,ArchivoPrueba,2024.1.1,None,2024-04-28 12h20.09.224697 -0500,
¿Recuerda si hay algún lugar u objeto en su camino hacia el trabajo que le llame la atención?,7,blue,0,15,15,15,0,3,3,3,47.39900080000007,,,,,,,,,,,,,,,47.37265750000006,47.39900080000007,47.47071039999901,773583,001,2024-04-28_12h19.59.154,ArchivoPrueba,2024.1.1,None,2024-04-28 12h20.09.224697 -0500,
" ¿Recuerda el recorrido desde la entrada de su lugar de trabajo hasta su oficina, donde realiza sus funciones?",9,yellow,0,15,15,15,0,4,4,4,47.481778100000156,,,,,,,,,,,,,,,47.47115639999902,47.481778100000156,47.5688811,773583,001,2024-04-28_12h19.59.154,ArchivoPrueba,2024.1.1,None,2024-04-28 12h20.09.224697 -0500,
¿Recuerda alguna actividad que realice durante los viajes de regreso a casa desde el trabajo para relajarse?,11,orange,0,15,15,15,0,5,5,5,47.58193899999969,,,,,,,,,,,,,,,47.56915289999961,47.58193899999969,47.669163999999,773583,001,2024-04-28_12h19.59.154,ArchivoPrueba,2024.1.1,None,2024-04-28 12h20.09.224697 -0500,
¿Recuerda el trayecto que realiza desde su casa hasta el lugar donde realiza sus compras?,13,brown,0,15,15,15,0,6,6,6,47.68201489999956,,,,,,,,,,,,,,,47.66953289999947,47.68201489999956,47.76959150000039,773583,001,2024-04-28_12h19.59.154,ArchivoPrueba,2024.1.1,None,2024-04-28 12h20.09.224697 -0500,
¿Recuerda alguna situación divertida o interesante que haya experimentado durante el recorrido hacia el lugar de compras?,15,purple,0,15,15,15,0,7,7,7,47.799960700000156,,,,,,,,,,,,,,,47.76989959999992,47.799960700000156,47.87228429999959,773583,001,2024-04-28_12h19.59.154,ArchivoPrueba,2024.1.1,None,2024-04-28 12h20.09.224697 -0500,
 ¿Recuerda qué es lo primero que ve al llegar al lugar donde realiza sus compras?,17,green,0,15,15,15,0,8,8,8,47.899497299998984,,,,,,,,,,,,,,,47.872718599999644,47.899497299998984,47.97288870000011,773583,001,2024-04-28_12h19.59.154,ArchivoPrueba,2024.1.1,None,2024-04-28 12h20.09.224697 -0500,
¿Recuerda el recorrido desde su residencia hasta el centro de resonancia magnética?,19,red,0,15,15,15,0,9,9,9,48.00044949999938,,,,,,,,,,,,,,,47.97340070000064,48.00044949999938,48.07360519999929,773583,001,2024-04-28_12h19.59.154,ArchivoPrueba,2024.1.1,None,2024-04-28 12h20.09.224697 -0500,
None,21,white,0,15,15,15,0,10,10,10,48.09876710000026,,,,,,,,,,,,,,,48.07407140000032,48.09876710000026,48.16843979999976,773583,001,2024-04-28_12h19.59.154,ArchivoPrueba,2024.1.1,None,2024-04-28 12h20.09.224697 -0500,
None,23,blue,0,15,15,15,0,11,11,11,48.18144960000063,,,,,,,,,,,,,,,48.1688094000001,48.18144960000063,48.268105600000126,773583,001,2024-04-28_12h19.59.154,ArchivoPrueba,2024.1.1,None,2024-04-28 12h20.09.224697 -0500,
None,25,yellow,0,15,15,15,0,12,12,12,48.2814027000004,,,,,,,,,,,,,,,48.26838019999923,48.2814027000004,48.368273500000214,773583,001,2024-04-28_12h19.59.154,ArchivoPrueba,2024.1.1,None,2024-04-28 12h20.09.224697 -0500,
None,27,orange,0,15,15,15,0,13,13,13,48.381552900000315,,,,,,,,,,,,,,,48.36874050000006,48.381552900000315,48.468338000000585,773583,001,2024-04-28_12h19.59.154,ArchivoPrueba,2024.1.1,None,2024-04-28 12h20.09.224697 -0500,
None,29,brown,0,15,15,15,0,14,14,14,48.481296899999506,,,,,,,,,,,,,,,48.46877739999945,48.481296899999506,48.57133559999966,773583,001,2024-04-28_12h19.59.154,ArchivoPrueba,2024.1.1,None,2024-04-28 12h20.09.224697 -0500,
None,31,purple,0,15,15,15,0,15,15,15,48.59969369999999,,,,,,,,,,,,,,,48.57178930000009,48.59969369999999,48.67003339999974,773583,001,2024-04-28_12h19.59.154,ArchivoPrueba,2024.1.1,None,2024-04-28 12h20.09.224697 -0500,
None,33,green,0,15,15,15,0,16,16,16,48.680773599999156,,,,,,,,,,,,,,,48.67035869999927,48.680773599999156,48.76767370000016,773583,001,2024-04-28_12h19.59.154,ArchivoPrueba,2024.1.1,None,2024-04-28 12h20.09.224697 -0500,
None,35,red,0,15,15,15,0,17,17,17,48.780860400000165,,,,,,,,,,,,,,,48.76795499999935,48.780860400000165,48.86816910000016,773583,001,2024-04-28_12h19.59.154,ArchivoPrueba,2024.1.1,None,2024-04-28 12h20.09.224697 -0500,
None,37,white,0,15,15,15,0,18,18,18,48.88052950000019,,,,,,,,,,,,,,,48.868511799999396,48.88052950000019,48.973215199999686,773583,001,2024-04-28_12h19.59.154,ArchivoPrueba,2024.1.1,None,2024-04-28 12h20.09.224697 -0500,
None,39,blue,0,15,15,15,0,19,19,19,48.999084799999764,,,,,,,,,,,,,,,48.97384070000044,48.999084799999764,49.07045450000078,773583,001,2024-04-28_12h19.59.154,ArchivoPrueba,2024.1.1,None,2024-04-28 12h20.09.224697 -0500,
None,31,purple,0,15,15,15,,,,,,,,,,,,,,,,,,,,,,,773583,001,2024-04-28_12h19.59.154,ArchivoPrueba,2024.1.1,None,2024-04-28 12h20.09.224697 -0500,
¿Recuerda el recorrido que realiza desde su cama hasta la cocina de su residencia?,1,green,0,16,16,16,0,0,0,0,50.09624839999924,,,,,,,,,,,,49.071149100000184,49.099082000000635,50.06668539999919,50.076206800000364,50.09624839999924,50.16692089999924,773583,001,2024-04-28_12h19.59.154,ArchivoPrueba,2024.1.1,None,2024-04-28 12h20.09.224697 -0500,
¿Recuerda el trayecto que hace desde su casa hasta su lugar de trabajo?,3,red,0,16,16,16,0,1,1,1,50.179761999999755,,,,,,,,,,,,,,,50.16722060000029,50.179761999999755,50.26658470000075,773583,001,2024-04-28_12h19.59.154,ArchivoPrueba,2024.1.1,None,2024-04-28 12h20.09.224697 -0500,
¿Recuerda  algún inconveniente que ha  experimentado en el camino de su residencia a su lugar de trabajo?,5,white,0,16,16,16,0,2,2,2,50.27960779999921,,,,,,,,,,,,,,,50.266877100000784,50.27960779999921,50.36636349999935,773583,001,2024-04-28_12h19.59.154,ArchivoPrueba,2024.1.1,None,2024-04-28 12h20.09.224697 -0500,
¿Recuerda si hay algún lugar u objeto en su camino hacia el trabajo que le llame la atención?,7,blue,0,16,16,16,0,3,3,3,50.37998359999983,,,,,,,,,,,,,,,50.366675100000066,50.37998359999983,50.46656710000025,773583,001,2024-04-28_12h19.59.154,ArchivoPrueba,2024.1.1,None,2024-04-28 12h20.09.224697 -0500,
" ¿Recuerda el recorrido desde la entrada de su lugar de trabajo hasta su oficina, donde realiza sus funciones?",9,yellow,0,16,16,16,0,4,4,4,50.48032889999922,,,,,,,,,,,,,,,50.466879399999016,50.48032889999922,50.56949910000003,773583,001,2024-04-28_12h19.59.154,ArchivoPrueba,2024.1.1,None,2024-04-28 12h20.09.224697 -0500,
¿Recuerda alguna actividad que realice durante los viajes de regreso a casa desde el trabajo para relajarse?,11,orange,0,16,16,16,0,5,5,5,50.59697140000026,,,,,,,,,,,,,,,50.56980250000015,50.59697140000026,50.67070799999965,773583,001,2024-04-28_12h19.59.154,ArchivoPrueba,2024.1.1,None,2024-04-28 12h20.09.224697 -0500,
¿Recuerda el trayecto que realiza desde su casa hasta el lugar donde realiza sus compras?,13,brown,0,16,16,16,0,6,6,6,50.698056799999904,,,,,,,,,,,,,,,50.67114650000076,50.698056799999904,50.7681905999998,773583,001,2024-04-28_12h19.59.154,ArchivoPrueba,2024.1.1,None,2024-04-28 12h20.09.224697 -0500,
¿Recuerda alguna situación divertida o interesante que haya experimentado durante el recorrido hacia el lugar de compras?,15,purple,0,16,16,16,0,7,7,7,50.77932899999905,,,,,,,,,,,,,,,50.76849790000051,50.77932899999905,50.86854259999927,773583,001,2024-04-28_12h19.59.154,ArchivoPrueba,2024.1.1,None,2024-04-28 12h20.09.224697 -0500,
 ¿Recuerda qué es lo primero que ve al llegar al lugar donde realiza sus compras?,17,green,0,16,16,16,0,8,8,8,50.89640689999942,,,,,,,,,,,,,,,50.86884959999952,50.89640689999942,50.96693090000008,773583,001,2024-04-28_12h19.59.154,ArchivoPrueba,2024.1.1,None,2024-04-28 12h20.09.224697 -0500,
¿Recuerda el recorrido desde su residencia hasta el centro de resonancia magnética?,19,red,0,16,16,16,0,9,9,9,50.978744000000006,,,,,,,,,,,,,,,50.96724010000071,50.978744000000006,51.06592819999969,773583,001,2024-04-28_12h19.59.154,ArchivoPrueba,2024.1.1,None,2024-04-28 12h20.09.224697 -0500,
None,21,white,0,16,16,16,0,10,10,10,51.079162899999574,,,,,,,,,,,,,,,51.06621780000023,51.079162899999574,51.167343099999925,773583,001,2024-04-28_12h19.59.154,ArchivoPrueba,2024.1.1,None,2024-04-28 12h20.09.224697 -0500,
None,23,blue,0,16,16,16,0,11,11,11,51.178775599999426,,,,,,,,,,,,,,,51.1676281,51.178775599999426,51.268413199999486,773583,001,2024-04-28_12h19.59.154,ArchivoPrueba,2024.1.1,None,2024-04-28 12h20.09.224697 -0500,
None,25,yellow,0,16,16,16,0,12,12,12,51.27883590000056,,,,,,,,,,,,,,,51.26879829999962,51.27883590000056,51.36608239999987,773583,001,2024-04-28_12h19.59.154,ArchivoPrueba,2024.1.1,None,2024-04-28 12h20.09.224697 -0500,
None,27,orange,0,16,16,16,0,13,13,13,51.37862889999997,,,,,,,,,,,,,,,51.366420899999866,51.37862889999997,51.465387700000065,773583,001,2024-04-28_12h19.59.154,ArchivoPrueba,2024.1.1,None,2024-04-28 12h20.09.224697 -0500,
None,29,brown,0,16,16,16,0,14,14,14,51.47878219999984,,,,,,,,,,,,,,,51.46570419999989,51.47878219999984,51.56584370000019,773583,001,2024-04-28_12h19.59.154,ArchivoPrueba,2024.1.1,None,2024-04-28 12h20.09.224697 -0500,
None,31,purple,0,16,16,16,0,15,15,15,51.57904839999901,,,,,,,,,,,,,,,51.56617670000014,51.57904839999901,51.667235700000674,773583,001,2024-04-28_12h19.59.154,ArchivoPrueba,2024.1.1,None,2024-04-28 12h20.09.224697 -0500,
None,33,green,0,16,16,16,0,16,16,16,51.69595780000054,,,,,,,,,,,,,,,51.667571699999826,51.69595780000054,51.76819439999963,773583,001,2024-04-28_12h19.59.154,ArchivoPrueba,2024.1.1,None,2024-04-28 12h20.09.224697 -0500,
None,35,red,0,16,16,16,0,17,17,17,51.79594100000031,,,,,,,,,,,,,,,51.7686491000004,51.79594100000031,51.867469200000414,773583,001,2024-04-28_12h19.59.154,ArchivoPrueba,2024.1.1,None,2024-04-28 12h20.09.224697 -0500,
None,37,white,0,16,16,16,0,18,18,18,51.87811949999923,,,,,,,,,,,,,,,51.86778149999918,51.87811949999923,51.96711030000006,773583,001,2024-04-28_12h19.59.154,ArchivoPrueba,2024.1.1,None,2024-04-28 12h20.09.224697 -0500,
None,39,blue,0,16,16,16,0,19,19,19,51.99497049999991,,,,,,,,,,,,,,,51.967679400000634,51.99497049999991,52.08178129999942,773583,001,2024-04-28_12h19.59.154,ArchivoPrueba,2024.1.1,None,2024-04-28 12h20.09.224697 -0500,
None,33,green,0,16,16,16,,,,,,,,,,,,,,,,,,,,,,,773583,001,2024-04-28_12h19.59.154,ArchivoPrueba,2024.1.1,None,2024-04-28 12h20.09.224697 -0500,
¿Recuerda el recorrido que realiza desde su cama hasta la cocina de su residencia?,1,green,0,17,17,17,0,0,0,0,53.11037579999902,,,,,,,,,,,,52.08216580000044,52.111642500000016,53.08199980000063,53.091744299999846,53.11037579999902,53.18139340000016,773583,001,2024-04-28_12h19.59.154,ArchivoPrueba,2024.1.1,None,2024-04-28 12h20.09.224697 -0500,
¿Recuerda el trayecto que hace desde su casa hasta su lugar de trabajo?,3,red,0,17,17,17,0,1,1,1,53.194412799999554,,,,,,,,,,,,,,,53.181669699999475,53.194412799999554,53.281294099999286,773583,001,2024-04-28_12h19.59.154,ArchivoPrueba,2024.1.1,None,2024-04-28 12h20.09.224697 -0500,
¿Recuerda  algún inconveniente que ha  experimentado en el camino de su residencia a su lugar de trabajo?,5,white,0,17,17,17,0,2,2,2,53.29402660000051,,,,,,,,,,,,,,,53.28163499999937,53.29402660000051,53.380872399999134,773583,001,2024-04-28_12h19.59.154,ArchivoPrueba,2024.1.1,None,2024-04-28 12h20.09.224697 -0500,
¿Recuerda si hay algún lugar u objeto en su camino hacia el trabajo que le llame la atención?,7,blue,0,17,17,17,0,3,3,3,53.39382999999907,,,,,,,,,,,,,,,53.381190800000695,53.39382999999907,53.48092209999959,773583,001,2024-04-28_12h19.59.154,ArchivoPrueba,2024.1.1,None,2024-04-28 12h20.09.224697 -0500,
" ¿Recuerda el recorrido desde la entrada de su lugar de trabajo hasta su oficina, donde realiza sus funciones?",9,yellow,0,17,17,17,0,4,4,4,53.49399470000026,,,,,,,,,,,,,,,53.48133489999964,53.49399470000026,53.58166589999928,773583,001,2024-04-28_12h19.59.154,ArchivoPrueba,2024.1.1,None,2024-04-28 12h20.09.224697 -0500,
¿Recuerda alguna actividad que realice durante los viajes de regreso a casa desde el trabajo para relajarse?,11,orange,0,17,17,17,0,5,5,5,53.609972799999014,,,,,,,,,,,,,,,53.58225780000066,53.609972799999014,53.68043089999992,773583,001,2024-04-28_12h19.59.154,ArchivoPrueba,2024.1.1,None,2024-04-28 12h20.09.224697 -0500,
¿Recuerda el trayecto que realiza desde su casa hasta el lugar donde realiza sus compras?,13,brown,0,17,17,17,0,6,6,6,53.693139599999995,,,,,,,,,,,,,,,53.68072030000076,53.693139599999995,53.780475899999146,773583,001,2024-04-28_12h19.59.154,ArchivoPrueba,2024.1.1,None,2024-04-28 12h20.09.224697 -0500,
¿Recuerda alguna situación divertida o interesante que haya experimentado durante el recorrido hacia el lugar de compras?,15,purple,0,17,17,17,0,7,7,7,53.79341410000052,,,,,,,,,,,,,,,53.780768999999054,53.79341410000052,53.8803855999995,773583,001,2024-04-28_12h19.59.154,ArchivoPrueba,2024.1.1,None,2024-04-28 12h20.09.224697 -0500,
 ¿Recuerda qué es lo primero que ve al llegar al lugar donde realiza sus compras?,17,green,0,17,17,17,0,8,8,8,53.893090499999744,,,,,,,,,,,,,,,53.880677999999534,53.893090499999744,53.966504399999394,773583,001,2024-04-28_12h19.59.154,ArchivoPrueba,2024.1.1,None,2024-04-28 12h20.09.224697 -0500,
¿Recuerda el recorrido desde su residencia hasta el centro de resonancia magnética?,19,red,0,17,17,17,0,9,9,9,53.99329399999988,,,,,,,,,,,,,,,53.96695650000038,53.99329399999988,54.08178969999972,773583,001,2024-04-28_12h19.59.154,ArchivoPrueba,2024.1.1,None,2024-04-28 12h20.09.224697 -0500,
None,21,white,0,17,17,17,0,10,10,10,54.09267770000042,,,,,,,,,,,,,,,54.08220009999968,54.09267770000042,54.18016390000048,773583,001,2024-04-28_12h19.59.154,ArchivoPrueba,2024.1.1,None,2024-04-28 12h20.09.224697 -0500,
None,23,blue,0,17,17,17,0,11,11,11,54.19315889999962,,,,,,,,,,,,,,,54.18048629999976,54.19315889999962,54.2805587999992,773583,001,2024-04-28_12h19.59.154,ArchivoPrueba,2024.1.1,None,2024-04-28 12h20.09.224697 -0500,
None,25,yellow,0,17,17,17,0,12,12,12,54.29292050000004,,,,,,,,,,,,,,,54.280832700000246,54.29292050000004,54.37970829999904,773583,001,2024-04-28_12h19.59.154,ArchivoPrueba,2024.1.1,None,2024-04-28 12h20.09.224697 -0500,
None,27,orange,0,17,17,17,0,13,13,13,54.39265809999961,,,,,,,,,,,,,,,54.37998359999983,54.39265809999961,54.47962439999901,773583,001,2024-04-28_12h19.59.154,ArchivoPrueba,2024.1.1,None,2024-04-28 12h20.09.224697 -0500,
None,29,brown,0,17,17,17,0,14,14,14,54.49266940000052,,,,,,,,,,,,,,,54.479919999999765,54.49266940000052,54.57959959999971,773583,001,2024-04-28_12h19.59.154,ArchivoPrueba,2024.1.1,None,2024-04-28 12h20.09.224697 -0500,
None,31,purple,0,17,17,17,0,15,15,15,54.59259369999927,,,,,,,,,,,,,,,54.579972699999416,54.59259369999927,54.6799718000002,773583,001,2024-04-28_12h19.59.154,ArchivoPrueba,2024.1.1,None,2024-04-28 12h20.09.224697 -0500,
None,33,green,0,17,17,17,0,16,16,16,54.69253460000073,,,,,,,,,,,,,,,54.6802461999996,54.69253460000073,54.77944799999932,773583,001,2024-04-28_12h19.59.154,ArchivoPrueba,2024.1.1,None,2024-04-28 12h20.09.224697 -0500,
None,35,red,0,17,17,17,0,17,17,17,54.79280680000011,,,,,,,,,,,,,,,54.77987050000047,54.79280680000011,54.879676099999415,773583,001,2024-04-28_12h19.59.154,ArchivoPrueba,2024.1.1,None,2024-04-28 12h20.09.224697 -0500,
None,37,white,0,17,17,17,0,18,18,18,54.89258390000032,,,,,,,,,,,,,,,54.880000799999834,54.89258390000032,54.9794337000003,773583,001,2024-04-28_12h19.59.154,ArchivoPrueba,2024.1.1,None,2024-04-28 12h20.09.224697 -0500,
None,39,blue,0,17,17,17,0,19,19,19,54.99251639999966,,,,,,,,,,,,,,,54.97975410000072,54.99251639999966,55.07912149999902,773583,001,2024-04-28_12h19.59.154,ArchivoPrueba,2024.1.1,None,2024-04-28 12h20.09.224697 -0500,
None,35,red,0,17,17,17,,,,,,,,,,,,,,,,,,,,,,,773583,001,2024-04-28_12h19.59.154,ArchivoPrueba,2024.1.1,None,2024-04-28 12h20.09.224697 -0500,
¿Recuerda el recorrido que realiza desde su cama hasta la cocina de su residencia?,1,green,0,18,18,18,0,0,0,0,56.10775409999951,,,,,,,,,,,,55.079619599999205,55.1091207999998,56.08044920000066,56.090736399999514,56.10775409999951,56.178409199999805,773583,001,2024-04-28_12h19.59.154,ArchivoPrueba,2024.1.1,None,2024-04-28 12h20.09.224697 -0500,
