PreguntaOff,PreguntaOn,Colors,Prueba.thisRepN,Prueba.thisTrialN,Prueba.thisN,Prueba.thisIndex,RepeticionOn.thisRepN,RepeticionOn.thisTrialN,RepeticionOn.thisN,RepeticionOn.thisIndex,thisRow.t,notes,introducción_3.started,introducción.started,mouse.started,introducción_3.stopped,mouse.x,mouse.y,mouse.leftButton,mouse.midButton,mouse.rightButton,mouse.time,Off.started,CondicionOff.started,Off.stopped,On.started,CondicionOn.started,On.stopped,FInalizacion.started,FinPrueba.started,FInalizacion.stopped,participant,session,date,expName,psychopyVersion,frameRate,expStart,
,,,,,,,,,,,,,0.06148419999954058,0.0771521999995457,0.061045000000376604,2.326181700000234,[-0.13541666666666666],[0.171875],[1],[0],[0],[2.2627628999998706],,,,,,,,,,012346,001,2024-04-28_12h41.59.549,ArchivoPrueba,2024.1.1,None,2024-04-28 12h42.11.651648 -0500,
¿Recuerda el recorrido que realiza desde su cama hasta la cocina de su residencia?,1,green,0,0,0,0,0,0,0,0,3.4242453999995632,,,,,,,,,,,,2.3561356000009255,2.4084675000012794,3.3538330999999744,3.3837438999998994,3.4242453999995632,3.4352689999996073,,,,012346,001,2024-04-28_12h41.59.549,ArchivoPrueba,2024.1.1,None,2024-04-28 12h42.11.651648 -0500,
¿Recuerda el trayecto que hace desde su casa hasta su lugar de trabajo?,3,red,0,0,0,0,0,1,1,1,3.475424700000076,,,,,,,,,,,,,,,3.4361461000007694,3.475424700000076,3.55697230000078,,,,012346,001,2024-04-28_12h41.59.549,ArchivoPrueba,2024.1.1,None,2024-04-28 12h42.11.651648 -0500,
¿Recuerda  algún inconveniente que ha  experimentado en el camino de su residencia a su lugar de trabajo?,5,white,0,0,0,0,0,2,2,2,3.5913706999999704,,,,,,,,,,,,,,,3.5580391000003146,3.5913706999999704,3.640491000000111,,,,012346,001,2024-04-28_12h41.59.549,ArchivoPrueba,2024.1.1,None,2024-04-28 12h42.11.651648 -0500,
¿Recuerda si hay algún lugar u objeto en su camino hacia el trabajo que le llame la atención?,7,blue,0,0,0,0,0,3,3,3,3.674298899999485,,,,,,,,,,,,,,,3.641575900001044,3.674298899999485,3.755950799999482,,,,012346,001,2024-04-28_12h41.59.549,ArchivoPrueba,2024.1.1,None,2024-04-28 12h42.11.651648 -0500,
" ¿Recuerda el recorrido desde la entrada de su lugar de trabajo hasta su oficina, donde realiza sus funciones?",9,yellow,0,0,0,0,0,4,4,4,3.791129600000204,,,,,,,,,,,,,,,3.7570890999995754,3.791129600000204,3.8406578000012814,,,,012346,001,2024-04-28_12h41.59.549,ArchivoPrueba,2024.1.1,None,2024-04-28 12h42.11.651648 -0500,
¿Recuerda alguna actividad que realice durante los viajes de regreso a casa desde el trabajo para relajarse?,11,orange,0,0,0,0,0,5,5,5,3.876208499999848,,,,,,,,,,,,,,,3.8417659000006097,3.876208499999848,3.958995099999811,,,,012346,001,2024-04-28_12h41.59.549,ArchivoPrueba,2024.1.1,None,2024-04-28 12h42.11.651648 -0500,
¿Recuerda el trayecto que realiza desde su casa hasta el lugar donde realiza sus compras?,13,brown,0,0,0,0,0,6,6,6,3.9923816999998962,,,,,,,,,,,,,,,3.9600004000003537,3.9923816999998962,4.042196700000204,,,,012346,001,2024-04-28_12h41.59.549,ArchivoPrueba,2024.1.1,None,2024-04-28 12h42.11.651648 -0500,
¿Recuerda alguna situación divertida o interesante que haya experimentado durante el recorrido hacia el lugar de compras?,15,purple,0,0,0,0,0,7,7,7,4.075622500000463,,,,,,,,,,,,,,,4.043268200000966,4.075622500000463,4.153760900000634,,,,012346,001,2024-04-28_12h41.59.549,ArchivoPrueba,2024.1.1,None,2024-04-28 12h42.11.651648 -0500,
 ¿Recuerda qué es lo primero que ve al llegar al lugar donde realiza sus compras?,17,green,0,0,0,0,0,8,8,8,4.191884500000015,,,,,,,,,,,,,,,4.155332600001202,4.191884500000015,4.239513100001204,,,,012346,001,2024-04-28_12h41.59.549,ArchivoPrueba,2024.1.1,None,2024-04-28 12h42.11.651648 -0500,
¿Recuerda el recorrido desde su residencia hasta el centro de resonancia magnética?,19,red,0,0,0,0,0,9,9,9,4.275412400000278,,,,,,,,,,,,,,,4.240625200000068,4.275412400000278,4.357526300000245,,,,012346,001,2024-04-28_12h41.59.549,ArchivoPrueba,2024.1.1,None,2024-04-28 12h42.11.651648 -0500,
None,21,white,0,0,0,0,0,10,10,10,4.390352300000814,,,,,,,,,,,,,,,4.358734200000981,4.390352300000814,4.438822300000538,,,,012346,001,2024-04-28_12h41.59.549,ArchivoPrueba,2024.1.1,None,2024-04-28 12h42.11.651648 -0500,
None,23,blue,0,0,0,0,0,11,11,11,4.476100300000326,,,,,,,,,,,,,,,4.44021260000045,4.476100300000326,4.555958200000532,,,,012346,001,2024-04-28_12h41.59.549,ArchivoPrueba,2024.1.1,None,2024-04-28 12h42.11.651648 -0500,
None,25,yellow,0,0,0,0,0,12,12,12,4.592044099999839,,,,,,,,,,,,,,,4.557185800000298,4.592044099999839,4.638785400000415,,,,012346,001,2024-04-28_12h41.59.549,ArchivoPrueba,2024.1.1,None,2024-04-28 12h42.11.651648 -0500,
None,27,orange,0,0,0,0,0,13,13,13,4.674930200000745,,,,,,,,,,,,,,,4.639922500000466,4.674930200000745,4.755825000000186,,,,012346,001,2024-04-28_12h41.59.549,ArchivoPrueba,2024.1.1,None,2024-04-28 12h42.11.651648 -0500,
None,29,brown,0,0,0,0,0,14,14,14,4.791641499999969,,,,,,,,,,,,,,,4.756975899999816,4.791641499999969,4.839703900001041,,,,012346,001,2024-04-28_12h41.59.549,ArchivoPrueba,2024.1.1,None,2024-04-28 12h42.11.651648 -0500,
None,31,purple,0,0,0,0,0,15,15,15,4.874757800000225,,,,,,,,,,,,,,,4.84075219999977,4.874757800000225,4.957065500000681,,,,012346,001,2024-04-28_12h41.59.549,ArchivoPrueba,2024.1.1,None,2024-04-28 12h42.11.651648 -0500,
None,33,green,0,0,0,0,0,16,16,16,4.9919994000010774,,,,,,,,,,,,,,,4.9583178000011685,4.9919994000010774,5.041132000000289,,,,012346,001,2024-04-28_12h41.59.549,ArchivoPrueba,2024.1.1,None,2024-04-28 12h42.11.651648 -0500,
None,35,red,0,0,0,0,0,17,17,17,5.074553700000251,,,,,,,,,,,,,,,5.042073000000528,5.074553700000251,5.1279384999998,,,,012346,001,2024-04-28_12h41.59.549,ArchivoPrueba,2024.1.1,None,2024-04-28 12h42.11.651648 -0500,
None,37,white,0,0,0,0,0,18,18,18,5.157971599999655,,,,,,,,,,,,,,,5.128910400000677,5.157971599999655,5.238184900001215,,,,012346,001,2024-04-28_12h41.59.549,ArchivoPrueba,2024.1.1,None,2024-04-28 12h42.11.651648 -0500,
None,39,blue,0,0,0,0,0,19,19,19,5.274542700000893,,,,,,,,,,,,,,,5.239475700000185,5.274542700000893,5.353007800000341,,,,012346,001,2024-04-28_12h41.59.549,ArchivoPrueba,2024.1.1,None,2024-04-28 12h42.11.651648 -0500,
¿Recuerda el recorrido que realiza desde su cama hasta la cocina de su residencia?,1,green,0,0,0,0,,,,,,,,,,,,,,,,,,,,,,,,,,012346,001,2024-04-28_12h41.59.549,ArchivoPrueba,2024.1.1,None,2024-04-28 12h42.11.651648 -0500,
¿Recuerda el recorrido que realiza desde su cama hasta la cocina de su residencia?,1,green,0,1,1,1,0,0,0,0,6.42335550000098,,,,,,,,,,,,5.354941600000529,5.406071000001248,6.353767500000686,6.387512499999502,6.42335550000098,6.437700800001039,,,,012346,001,2024-04-28_12h41.59.549,ArchivoPrueba,2024.1.1,None,2024-04-28 12h42.11.651648 -0500,
¿Recuerda el trayecto que hace desde su casa hasta su lugar de trabajo?,3,red,0,1,1,1,0,1,1,1,6.474505700000009,,,,,,,,,,,,,,,6.438838400001259,6.474505700000009,6.551247100000182,,,,012346,001,2024-04-28_12h41.59.549,ArchivoPrueba,2024.1.1,None,2024-04-28 12h42.11.651648 -0500,
¿Recuerda  algún inconveniente que ha  experimentado en el camino de su residencia a su lugar de trabajo?,5,white,0,1,1,1,0,2,2,2,6.5903871999998955,,,,,,,,,,,,,,,6.552299700000731,6.5903871999998955,6.638714000000618,,,,012346,001,2024-04-28_12h41.59.549,ArchivoPrueba,2024.1.1,None,2024-04-28 12h42.11.651648 -0500,
¿Recuerda si hay algún lugar u objeto en su camino hacia el trabajo que le llame la atención?,7,blue,0,1,1,1,0,3,3,3,6.672974400000385,,,,,,,,,,,,,,,6.639683200000945,6.672974400000385,6.753047700000025,,,,012346,001,2024-04-28_12h41.59.549,ArchivoPrueba,2024.1.1,None,2024-04-28 12h42.11.651648 -0500,
" ¿Recuerda el recorrido desde la entrada de su lugar de trabajo hasta su oficina, donde realiza sus funciones?",9,yellow,0,1,1,1,0,4,4,4,6.78972419999991,,,,,,,,,,,,,,,6.754603100000168,6.78972419999991,6.8378542000009475,,,,012346,001,2024-04-28_12h41.59.549,ArchivoPrueba,2024.1.1,None,2024-04-28 12h42.11.651648 -0500,
¿Recuerda alguna actividad que realice durante los viajes de regreso a casa desde el trabajo para relajarse?,11,orange,0,1,1,1,0,5,5,5,6.873250500000722,,,,,,,,,,,,,,,6.838912600000185,6.873250500000722,6.958167000000685,,,,012346,001,2024-04-28_12h41.59.549,ArchivoPrueba,2024.1.1,None,2024-04-28 12h42.11.651648 -0500,
¿Recuerda el trayecto que realiza desde su casa hasta el lugar donde realiza sus compras?,13,brown,0,1,1,1,0,6,6,6,6.989954800001215,,,,,,,,,,,,,,,6.959627899999759,6.989954800001215,7.036723299999721,,,,012346,001,2024-04-28_12h41.59.549,ArchivoPrueba,2024.1.1,None,2024-04-28 12h42.11.651648 -0500,
¿Recuerda alguna situación divertida o interesante que haya experimentado durante el recorrido hacia el lugar de compras?,15,purple,0,1,1,1,0,7,7,7,7.0733183000011195,,,,,,,,,,,,,,,7.038088200000857,7.0733183000011195,7.155741900000066,,,,012346,001,2024-04-28_12h41.59.549,ArchivoPrueba,2024.1.1,None,2024-04-28 12h42.11.651648 -0500,
 ¿Recuerda qué es lo primero que ve al llegar al lugar donde realiza sus compras?,17,green,0,1,1,1,0,8,8,8,7.189343800000643,,,,,,,,,,,,,,,7.15666710000005,7.189343800000643,7.2362806000001,,,,012346,001,2024-04-28_12h41.59.549,ArchivoPrueba,2024.1.1,None,2024-04-28 12h42.11.651648 -0500,
¿Recuerda el recorrido desde su residencia hasta el centro de resonancia magnética?,19,red,0,1,1,1,0,9,9,9,7.272756399999707,,,,,,,,,,,,,,,7.237450500000705,7.272756399999707,7.354319899999609,,,,012346,001,2024-04-28_12h41.59.549,ArchivoPrueba,2024.1.1,None,2024-04-28 12h42.11.651648 -0500,
None,21,white,0,1,1,1,0,10,10,10,7.389469100000497,,,,,,,,,,,,,,,7.355538800000431,7.389469100000497,7.4361824999996315,,,,012346,001,2024-04-28_12h41.59.549,ArchivoPrueba,2024.1.1,None,2024-04-28 12h42.11.651648 -0500,
None,23,blue,0,1,1,1,0,11,11,11,7.47354389999964,,,,,,,,,,,,,,,7.437446400001136,7.47354389999964,7.553482000001168,,,,012346,001,2024-04-28_12h41.59.549,ArchivoPrueba,2024.1.1,None,2024-04-28 12h42.11.651648 -0500,
None,25,yellow,0,1,1,1,0,12,12,12,7.589396700001089,,,,,,,,,,,,,,,7.554702200000975,7.589396700001089,7.637007600000288,,,,012346,001,2024-04-28_12h41.59.549,ArchivoPrueba,2024.1.1,None,2024-04-28 12h42.11.651648 -0500,
None,27,orange,0,1,1,1,0,13,13,13,7.672506200000498,,,,,,,,,,,,,,,7.638207500000135,7.672506200000498,7.755554499999562,,,,012346,001,2024-04-28_12h41.59.549,ArchivoPrueba,2024.1.1,None,2024-04-28 12h42.11.651648 -0500,
None,29,brown,0,1,1,1,0,14,14,14,7.789301900000282,,,,,,,,,,,,,,,7.75663220000024,7.789301900000282,7.841889999999694,,,,012346,001,2024-04-28_12h41.59.549,ArchivoPrueba,2024.1.1,None,2024-04-28 12h42.11.651648 -0500,
None,31,purple,0,1,1,1,0,15,15,15,7.8925438999995094,,,,,,,,,,,,,,,7.843191100000695,7.8925438999995094,7.929240100000243,,,,012346,001,2024-04-28_12h41.59.549,ArchivoPrueba,2024.1.1,None,2024-04-28 12h42.11.651648 -0500,
None,33,green,0,1,1,1,0,16,16,16,7.956326600000466,,,,,,,,,,,,,,,7.930869199999506,7.956326600000466,8.063275700000304,,,,012346,001,2024-04-28_12h41.59.549,ArchivoPrueba,2024.1.1,None,2024-04-28 12h42.11.651648 -0500,
None,35,red,0,1,1,1,0,17,17,17,8.124998299999788,,,,,,,,,,,,,,,8.0647239000009,8.124998299999788,8.151112499999726,,,,012346,001,2024-04-28_12h41.59.549,ArchivoPrueba,2024.1.1,None,2024-04-28 12h42.11.651648 -0500,
None,37,white,0,1,1,1,0,18,18,18,8.187824000000546,,,,,,,,,,,,,,,8.152712600000086,8.187824000000546,8.228340699999535,,,,012346,001,2024-04-28_12h41.59.549,ArchivoPrueba,2024.1.1,None,2024-04-28 12h42.11.651648 -0500,
None,39,blue,0,1,1,1,0,19,19,19,8.257153900000048,,,,,,,,,,,,,,,8.228953499999989,8.257153900000048,8.351353600000948,,,,012346,001,2024-04-28_12h41.59.549,ArchivoPrueba,2024.1.1,None,2024-04-28 12h42.11.651648 -0500,
¿Recuerda el trayecto que hace desde su casa hasta su lugar de trabajo?,3,red,0,1,1,1,,,,,,,,,,,,,,,,,,,,,,,,,,012346,001,2024-04-28_12h41.59.549,ArchivoPrueba,2024.1.1,None,2024-04-28 12h42.11.651648 -0500,
¿Recuerda el recorrido que realiza desde su cama hasta la cocina de su residencia?,1,green,0,2,2,2,0,0,0,0,9.489041599999837,,,,,,,,,,,,8.353366400000596,8.419991900000241,9.338263200001165,9.438084900000831,,9.450906000000032,,,,012346,001,2024-04-28_12h41.59.549,ArchivoPrueba,2024.1.1,None,2024-04-28 12h42.11.651648 -0500,
¿Recuerda el trayecto que hace desde su casa hasta su lugar de trabajo?,3,red,0,2,2,2,0,1,1,1,9.489041599999837,,,,,,,,,,,,,,,9.452261800000997,9.489041599999837,9.558554100000038,,,,012346,001,2024-04-28_12h41.59.549,ArchivoPrueba,2024.1.1,None,2024-04-28 12h42.11.651648 -0500,
¿Recuerda  algún inconveniente que ha  experimentado en el camino de su residencia a su lugar de trabajo?,5,white,0,2,2,2,0,2,2,2,9.603907900000195,,,,,,,,,,,,,,,9.560002199999872,9.603907900000195,9.669708000001265,,,,012346,001,2024-04-28_12h41.59.549,ArchivoPrueba,2024.1.1,None,2024-04-28 12h42.11.651648 -0500,
¿Recuerda si hay algún lugar u objeto en su camino hacia el trabajo que le llame la atención?,7,blue,0,2,2,2,0,3,3,3,9.703784700001052,,,,,,,,,,,,,,,9.670912999999928,9.703784700001052,9.752707999999984,,,,012346,001,2024-04-28_12h41.59.549,ArchivoPrueba,2024.1.1,None,2024-04-28 12h42.11.651648 -0500,
" ¿Recuerda el recorrido desde la entrada de su lugar de trabajo hasta su oficina, donde realiza sus funciones?",9,yellow,0,2,2,2,0,4,4,4,9.787114099999599,,,,,,,,,,,,,,,9.753688400000101,9.787114099999599,9.835759800000233,,,,012346,001,2024-04-28_12h41.59.549,ArchivoPrueba,2024.1.1,None,2024-04-28 12h42.11.651648 -0500,
¿Recuerda alguna actividad que realice durante los viajes de regreso a casa desde el trabajo para relajarse?,11,orange,0,2,2,2,0,5,5,5,9.870517900000777,,,,,,,,,,,,,,,9.836899100000664,9.870517900000777,9.936801500000001,,,,012346,001,2024-04-28_12h41.59.549,ArchivoPrueba,2024.1.1,None,2024-04-28 12h42.11.651648 -0500,
¿Recuerda el trayecto que realiza desde su casa hasta el lugar donde realiza sus compras?,13,brown,0,2,2,2,0,6,6,6,9.97157580000021,,,,,,,,,,,,,,,9.938069499999983,9.97157580000021,10.062828600001012,,,,012346,001,2024-04-28_12h41.59.549,ArchivoPrueba,2024.1.1,None,2024-04-28 12h42.11.651648 -0500,
¿Recuerda alguna situación divertida o interesante que haya experimentado durante el recorrido hacia el lugar de compras?,15,purple,0,2,2,2,0,7,7,7,10.155532500000845,,,,,,,,,,,,,,,10.070714400000725,10.155532500000845,10.16481229999954,,,,012346,001,2024-04-28_12h41.59.549,ArchivoPrueba,2024.1.1,None,2024-04-28 12h42.11.651648 -0500,
 ¿Recuerda qué es lo primero que ve al llegar al lugar donde realiza sus compras?,17,green,0,2,2,2,0,8,8,8,10.187065500000244,,,,,,,,,,,,,,,10.165952700001071,10.187065500000244,10.234671100000924,,,,012346,001,2024-04-28_12h41.59.549,ArchivoPrueba,2024.1.1,None,2024-04-28 12h42.11.651648 -0500,
¿Recuerda el recorrido desde su residencia hasta el centro de resonancia magnética?,19,red,0,2,2,2,0,9,9,9,10.291725600000063,,,,,,,,,,,,,,,10.236860299999535,10.291725600000063,10.386889499999597,,,,012346,001,2024-04-28_12h41.59.549,ArchivoPrueba,2024.1.1,None,2024-04-28 12h42.11.651648 -0500,
None,21,white,0,2,2,2,0,10,10,10,10.440207400000872,,,,,,,,,,,,,,,10.388430099999823,10.440207400000872,10.471488099999988,,,,012346,001,2024-04-28_12h41.59.549,ArchivoPrueba,2024.1.1,None,2024-04-28 12h42.11.651648 -0500,
None,23,blue,0,2,2,2,0,11,11,11,10.540820500000336,,,,,,,,,,,,,,,10.473595600000408,10.540820500000336,10.61083570000119,,,,012346,001,2024-04-28_12h41.59.549,ArchivoPrueba,2024.1.1,None,2024-04-28 12h42.11.651648 -0500,
None,25,yellow,0,2,2,2,0,12,12,12,10.637176600001112,,,,,,,,,,,,,,,10.612025899999935,10.637176600001112,10.64456280000013,,,,012346,001,2024-04-28_12h41.59.549,ArchivoPrueba,2024.1.1,None,2024-04-28 12h42.11.651648 -0500,
None,27,orange,0,2,2,2,0,13,13,13,10.672363100000439,,,,,,,,,,,,,,,10.64506910000091,10.672363100000439,10.772584199999983,,,,012346,001,2024-04-28_12h41.59.549,ArchivoPrueba,2024.1.1,None,2024-04-28 12h42.11.651648 -0500,
None,29,brown,0,2,2,2,0,14,14,14,10.855329600000914,,,,,,,,,,,,,,,10.775325599999633,10.855329600000914,10.863335000000006,,,,012346,001,2024-04-28_12h41.59.549,ArchivoPrueba,2024.1.1,None,2024-04-28 12h42.11.651648 -0500,
None,31,purple,0,2,2,2,0,15,15,15,10.889371900000697,,,,,,,,,,,,,,,10.866948500000944,10.889371900000697,10.976965400001063,,,,012346,001,2024-04-28_12h41.59.549,ArchivoPrueba,2024.1.1,None,2024-04-28 12h42.11.651648 -0500,
None,33,green,0,2,2,2,0,16,16,16,11.021980400000757,,,,,,,,,,,,,,,10.978099500000098,11.021980400000757,11.046037899999646,,,,012346,001,2024-04-28_12h41.59.549,ArchivoPrueba,2024.1.1,None,2024-04-28 12h42.11.651648 -0500,
None,35,red,0,2,2,2,0,17,17,17,11.092607800001133,,,,,,,,,,,,,,,11.050780999999915,11.092607800001133,11.137490799999796,,,,012346,001,2024-04-28_12h41.59.549,ArchivoPrueba,2024.1.1,None,2024-04-28 12h42.11.651648 -0500,
None,37,white,0,2,2,2,0,18,18,18,11.169725800000379,,,,,,,,,,,,,,,11.139045500000066,11.169725800000379,11.258319800001118,,,,012346,001,2024-04-28_12h41.59.549,ArchivoPrueba,2024.1.1,None,2024-04-28 12h42.11.651648 -0500,
None,39,blue,0,2,2,2,0,19,19,19,11.28722469999957,,,,,,,,,,,,,,,11.259509700001217,11.28722469999957,11.342331699999704,,,,012346,001,2024-04-28_12h41.59.549,ArchivoPrueba,2024.1.1,None,2024-04-28 12h42.11.651648 -0500,
¿Recuerda  algún inconveniente que ha  experimentado en el camino de su residencia a su lugar de trabajo?,5,white,0,2,2,2,,,,,,,,,,,,,,,,,,,,,,,,,,012346,001,2024-04-28_12h41.59.549,ArchivoPrueba,2024.1.1,None,2024-04-28 12h42.11.651648 -0500,
¿Recuerda el recorrido que realiza desde su cama hasta la cocina de su residencia?,1,green,0,3,3,3,0,0,0,0,12.40135250000094,,,,,,,,,,,,11.343499800001155,11.40329980000024,12.33952599999975,12.37218220000068,12.40135250000094,12.448957300000984,,,,012346,001,2024-04-28_12h41.59.549,ArchivoPrueba,2024.1.1,None,2024-04-28 12h42.11.651648 -0500,
¿Recuerda el trayecto que hace desde su casa hasta su lugar de trabajo?,3,red,0,3,3,3,0,1,1,1,12.484831699999631,,,,,,,,,,,,,,,12.450340800000049,12.484831699999631,12.536258899999666,,,,012346,001,2024-04-28_12h41.59.549,ArchivoPrueba,2024.1.1,None,2024-04-28 12h42.11.651648 -0500,
¿Recuerda  algún inconveniente que ha  experimentado en el camino de su residencia a su lugar de trabajo?,5,white,0,3,3,3,0,2,2,2,12.56897730000128,,,,,,,,,,,,,,,12.537425900000017,12.56897730000128,12.655364100000952,,,,012346,001,2024-04-28_12h41.59.549,ArchivoPrueba,2024.1.1,None,2024-04-28 12h42.11.651648 -0500,
¿Recuerda si hay algún lugar u objeto en su camino hacia el trabajo que le llame la atención?,7,blue,0,3,3,3,0,3,3,3,12.685805799999798,,,,,,,,,,,,,,,12.656651499999498,12.685805799999798,12.76087279999956,,,,012346,001,2024-04-28_12h41.59.549,ArchivoPrueba,2024.1.1,None,2024-04-28 12h42.11.651648 -0500,
" ¿Recuerda el recorrido desde la entrada de su lugar de trabajo hasta su oficina, donde realiza sus funciones?",9,yellow,0,3,3,3,0,4,4,4,12.803383000000395,,,,,,,,,,,,,,,12.764319400001114,12.803383000000395,12.83319400000073,,,,012346,001,2024-04-28_12h41.59.549,ArchivoPrueba,2024.1.1,None,2024-04-28 12h42.11.651648 -0500,
¿Recuerda alguna actividad que realice durante los viajes de regreso a casa desde el trabajo para relajarse?,11,orange,0,3,3,3,0,5,5,5,12.889711100000568,,,,,,,,,,,,,,,12.835046899999725,12.889711100000568,12.982879400000456,,,,012346,001,2024-04-28_12h41.59.549,ArchivoPrueba,2024.1.1,None,2024-04-28 12h42.11.651648 -0500,
¿Recuerda el trayecto que realiza desde su casa hasta el lugar donde realiza sus compras?,13,brown,0,3,3,3,0,6,6,6,13.037090199999511,,,,,,,,,,,,,,,12.98423300000104,13.037090199999511,13.069324199999755,,,,012346,001,2024-04-28_12h41.59.549,ArchivoPrueba,2024.1.1,None,2024-04-28 12h42.11.651648 -0500,
¿Recuerda alguna situación divertida o interesante que haya experimentado durante el recorrido hacia el lugar de compras?,15,purple,0,3,3,3,0,7,7,7,13.155865300001096,,,,,,,,,,,,,,,13.071119100000942,13.155865300001096,13.17208490000121,,,,012346,001,2024-04-28_12h41.59.549,ArchivoPrueba,2024.1.1,None,2024-04-28 12h42.11.651648 -0500,
 ¿Recuerda qué es lo primero que ve al llegar al lugar donde realiza sus compras?,17,green,0,3,3,3,0,8,8,8,13.202383100000588,,,,,,,,,,,,,,,13.17292389999966,13.202383100000588,13.266518100001122,,,,012346,001,2024-04-28_12h41.59.549,ArchivoPrueba,2024.1.1,None,2024-04-28 12h42.11.651648 -0500,
¿Recuerda el recorrido desde su residencia hasta el centro de resonancia magnética?,19,red,0,3,3,3,0,9,9,9,13.301639400000568,,,,,,,,,,,,,,,13.267753600001015,13.301639400000568,13.372519599999578,,,,012346,001,2024-04-28_12h41.59.549,ArchivoPrueba,2024.1.1,None,2024-04-28 12h42.11.651648 -0500,
None,21,white,0,3,3,3,0,10,10,10,13.418117400000483,,,,,,,,,,,,,,,13.374102499999935,13.418117400000483,13.43987990000096,,,,012346,001,2024-04-28_12h41.59.549,ArchivoPrueba,2024.1.1,None,2024-04-28 12h42.11.651648 -0500,
None,23,blue,0,3,3,3,0,11,11,11,13.467267500000162,,,,,,,,,,,,,,,13.441208199999892,13.467267500000162,13.54918859999998,,,,012346,001,2024-04-28_12h41.59.549,ArchivoPrueba,2024.1.1,None,2024-04-28 12h42.11.651648 -0500,
None,25,yellow,0,3,3,3,0,12,12,12,13.583875100001023,,,,,,,,,,,,,,,13.550367600000754,13.583875100001023,13.63407030000053,,,,012346,001,2024-04-28_12h41.59.549,ArchivoPrueba,2024.1.1,None,2024-04-28 12h42.11.651648 -0500,
None,27,orange,0,3,3,3,0,13,13,13,13.667072199999893,,,,,,,,,,,,,,,13.635051999999632,13.667072199999893,13.751284699999815,,,,012346,001,2024-04-28_12h41.59.549,ArchivoPrueba,2024.1.1,None,2024-04-28 12h42.11.651648 -0500,
None,29,brown,0,3,3,3,0,14,14,14,13.784131600001274,,,,,,,,,,,,,,,13.75241300000016,13.784131600001274,13.833946599999763,,,,012346,001,2024-04-28_12h41.59.549,ArchivoPrueba,2024.1.1,None,2024-04-28 12h42.11.651648 -0500,
None,31,purple,0,3,3,3,0,15,15,15,13.867399900000237,,,,,,,,,,,,,,,13.83530570000039,13.867399900000237,13.951563200000237,,,,012346,001,2024-04-28_12h41.59.549,ArchivoPrueba,2024.1.1,None,2024-04-28 12h42.11.651648 -0500,
None,33,green,0,3,3,3,0,16,16,16,13.984209800000826,,,,,,,,,,,,,,,13.952688800000033,13.984209800000826,14.033958899999561,,,,012346,001,2024-04-28_12h41.59.549,ArchivoPrueba,2024.1.1,None,2024-04-28 12h42.11.651648 -0500,
None,35,red,0,3,3,3,0,17,17,17,14.067153400001189,,,,,,,,,,,,,,,14.035102199999528,14.067153400001189,14.1376180999996,,,,012346,001,2024-04-28_12h41.59.549,ArchivoPrueba,2024.1.1,None,2024-04-28 12h42.11.651648 -0500,
None,37,white,0,3,3,3,0,18,18,18,14.167054100000314,,,,,,,,,,,,,,,14.138660399999935,14.167054100000314,14.249138700000913,,,,012346,001,2024-04-28_12h41.59.549,ArchivoPrueba,2024.1.1,None,2024-04-28 12h42.11.651648 -0500,
None,39,blue,0,3,3,3,0,19,19,19,14.283831000000646,,,,,,,,,,,,,,,14.250298200000543,14.283831000000646,14.339143700000932,,,,012346,001,2024-04-28_12h41.59.549,ArchivoPrueba,2024.1.1,None,2024-04-28 12h42.11.651648 -0500,
¿Recuerda si hay algún lugar u objeto en su camino hacia el trabajo que le llame la atención?,7,blue,0,3,3,3,,,,,,,,,,,,,,,,,,,,,,,,,,012346,001,2024-04-28_12h41.59.549,ArchivoPrueba,2024.1.1,None,2024-04-28 12h42.11.651648 -0500,
¿Recuerda el recorrido que realiza desde su cama hasta la cocina de su residencia?,1,green,0,4,4,4,0,0,0,0,15.415541300000768,,,,,,,,,,,,14.3403255000012,14.398434400000042,15.336724000000686,15.380546200000026,15.415541300000768,15.431610900001033,,,,012346,001,2024-04-28_12h41.59.549,ArchivoPrueba,2024.1.1,None,2024-04-28 12h42.11.651648 -0500,
¿Recuerda el trayecto que hace desde su casa hasta su lugar de trabajo?,3,red,0,4,4,4,0,1,1,1,15.465628400001151,,,,,,,,,,,,,,,15.432794399999693,15.465628400001151,15.55066319999969,,,,012346,001,2024-04-28_12h41.59.549,ArchivoPrueba,2024.1.1,None,2024-04-28 12h42.11.651648 -0500,
¿Recuerda  algún inconveniente que ha  experimentado en el camino de su residencia a su lugar de trabajo?,5,white,0,4,4,4,0,2,2,2,15.582124399999884,,,,,,,,,,,,,,,15.551668000000063,15.582124399999884,15.650864100000035,,,,012346,001,2024-04-28_12h41.59.549,ArchivoPrueba,2024.1.1,None,2024-04-28 12h42.11.651648 -0500,
¿Recuerda si hay algún lugar u objeto en su camino hacia el trabajo que le llame la atención?,7,blue,0,4,4,4,0,3,3,3,15.682260300000053,,,,,,,,,,,,,,,15.652333800000633,15.682260300000053,15.75505239999984,,,,012346,001,2024-04-28_12h41.59.549,ArchivoPrueba,2024.1.1,None,2024-04-28 12h42.11.651648 -0500,
" ¿Recuerda el recorrido desde la entrada de su lugar de trabajo hasta su oficina, donde realiza sus funciones?",9,yellow,0,4,4,4,0,4,4,4,15.797911300000123,,,,,,,,,,,,,,,15.756325399999696,15.797911300000123,15.83945119999953,,,,012346,001,2024-04-28_12h41.59.549,ArchivoPrueba,2024.1.1,None,2024-04-28 12h42.11.651648 -0500,
¿Recuerda alguna actividad que realice durante los viajes de regreso a casa desde el trabajo para relajarse?,11,orange,0,4,4,4,0,5,5,5,15.864317600000504,,,,,,,,,,,,,,,15.839982400000736,15.864317600000504,15.943365600000106,,,,012346,001,2024-04-28_12h41.59.549,ArchivoPrueba,2024.1.1,None,2024-04-28 12h42.11.651648 -0500,
¿Recuerda el trayecto que realiza desde su casa hasta el lugar donde realiza sus compras?,13,brown,0,4,4,4,0,6,6,6,15.964570199999798,,,,,,,,,,,,,,,15.944323499999882,15.964570199999798,16.04134470000099,,,,012346,001,2024-04-28_12h41.59.549,ArchivoPrueba,2024.1.1,None,2024-04-28 12h42.11.651648 -0500,
¿Recuerda alguna situación divertida o interesante que haya experimentado durante el recorrido hacia el lugar de compras?,15,purple,0,4,4,4,0,7,7,7,16.06452569999965,,,,,,,,,,,,,,,16.042478900000788,16.06452569999965,16.140262599999915,,,,012346,001,2024-04-28_12h41.59.549,ArchivoPrueba,2024.1.1,None,2024-04-28 12h42.11.651648 -0500,
 ¿Recuerda qué es lo primero que ve al llegar al lugar donde realiza sus compras?,17,green,0,4,4,4,0,8,8,8,16.164033400000335,,,,,,,,,,,,,,,16.14111469999989,16.164033400000335,16.23749889999999,,,,012346,001,2024-04-28_12h41.59.549,ArchivoPrueba,2024.1.1,None,2024-04-28 12h42.11.651648 -0500,
¿Recuerda el recorrido desde su residencia hasta el centro de resonancia magnética?,19,red,0,4,4,4,0,9,9,9,16.28316730000006,,,,,,,,,,,,,,,16.238847300000998,16.28316730000006,16.38718289999997,,,,012346,001,2024-04-28_12h41.59.549,ArchivoPrueba,2024.1.1,None,2024-04-28 12h42.11.651648 -0500,
None,21,white,0,4,4,4,0,10,10,10,16.449787700001252,,,,,,,,,,,,,,,16.391189699999813,16.449787700001252,16.470391000000745,,,,012346,001,2024-04-28_12h41.59.549,ArchivoPrueba,2024.1.1,None,2024-04-28 12h42.11.651648 -0500,
None,23,blue,0,4,4,4,0,11,11,11,16.497055900001214,,,,,,,,,,,,,,,16.471425300000192,16.497055900001214,16.538705900000423,,,,012346,001,2024-04-28_12h41.59.549,ArchivoPrueba,2024.1.1,None,2024-04-28 12h42.11.651648 -0500,
None,25,yellow,0,4,4,4,0,12,12,12,16.56657710000036,,,,,,,,,,,,,,,16.53935249999995,16.56657710000036,16.69081929999993,,,,012346,001,2024-04-28_12h41.59.549,ArchivoPrueba,2024.1.1,None,2024-04-28 12h42.11.651648 -0500,
None,27,orange,0,4,4,4,0,13,13,13,16.73225000000093,,,,,,,,,,,,,,,16.693620699999883,16.73225000000093,16.774300200000653,,,,012346,001,2024-04-28_12h41.59.549,ArchivoPrueba,2024.1.1,None,2024-04-28 12h42.11.651648 -0500,
None,29,brown,0,4,4,4,0,14,14,14,16.816391199999998,,,,,,,,,,,,,,,16.77806899999996,16.816391199999998,16.8421572999996,,,,012346,001,2024-04-28_12h41.59.549,ArchivoPrueba,2024.1.1,None,2024-04-28 12h42.11.651648 -0500,
None,31,purple,0,4,4,4,0,15,15,15,16.88207390000025,,,,,,,,,,,,,,,16.844272100001035,16.88207390000025,16.97264720000021,,,,012346,001,2024-04-28_12h41.59.549,ArchivoPrueba,2024.1.1,None,2024-04-28 12h42.11.651648 -0500,
None,33,green,0,4,4,4,0,16,16,16,17.015423799999553,,,,,,,,,,,,,,,16.97432149999986,17.015423799999553,17.05375009999989,,,,012346,001,2024-04-28_12h41.59.549,ArchivoPrueba,2024.1.1,None,2024-04-28 12h42.11.651648 -0500,
None,35,red,0,4,4,4,0,17,17,17,17.102310899999793,,,,,,,,,,,,,,,17.05536639999991,17.102310899999793,17.15211830000044,,,,012346,001,2024-04-28_12h41.59.549,ArchivoPrueba,2024.1.1,None,2024-04-28 12h42.11.651648 -0500,
None,37,white,0,4,4,4,0,18,18,18,17.180069800000638,,,,,,,,,,,,,,,17.154419599999528,17.180069800000638,17.237646499999755,,,,012346,001,2024-04-28_12h41.59.549,ArchivoPrueba,2024.1.1,None,2024-04-28 12h42.11.651648 -0500,
None,39,blue,0,4,4,4,0,19,19,19,17.264736700000867,,,,,,,,,,,,,,,17.238197800001217,17.264736700000867,17.354347100001178,,,,012346,001,2024-04-28_12h41.59.549,ArchivoPrueba,2024.1.1,None,2024-04-28 12h42.11.651648 -0500,
" ¿Recuerda el recorrido desde la entrada de su lugar de trabajo hasta su oficina, donde realiza sus funciones?",9,yellow,0,4,4,4,,,,,,,,,,,,,,,,,,,,,,,,,,012346,001,2024-04-28_12h41.59.549,ArchivoPrueba,2024.1.1,None,2024-04-28 12h42.11.651648 -0500,
¿Recuerda el recorrido que realiza desde su cama hasta la cocina de su residencia?,1,green,0,5,5,5,0,0,0,0,18.4507708000001,,,,,,,,,,,,17.356103500000245,17.41477020000093,18.35378479999963,18.4125425000002,18.4507708000001,18.468035199999576,,,,012346,001,2024-04-28_12h41.59.549,ArchivoPrueba,2024.1.1,None,2024-04-28 12h42.11.651648 -0500,
¿Recuerda el trayecto que hace desde su casa hasta su lugar de trabajo?,3,red,0,5,5,5,0,1,1,1,18.495641600000454,,,,,,,,,,,,,,,18.46919490000073,18.495641600000454,18.542700300000433,,,,012346,001,2024-04-28_12h41.59.549,ArchivoPrueba,2024.1.1,None,2024-04-28 12h42.11.651648 -0500,
¿Recuerda  algún inconveniente que ha  experimentado en el camino de su residencia a su lugar de trabajo?,5,white,0,5,5,5,0,2,2,2,18.563652300001195,,,,,,,,,,,,,,,18.543333900001016,18.563652300001195,18.675573800001075,,,,012346,001,2024-04-28_12h41.59.549,ArchivoPrueba,2024.1.1,None,2024-04-28 12h42.11.651648 -0500,
¿Recuerda si hay algún lugar u objeto en su camino hacia el trabajo que le llame la atención?,7,blue,0,5,5,5,0,3,3,3,18.733663900000465,,,,,,,,,,,,,,,18.679942900000242,18.733663900000465,18.766529599999558,,,,012346,001,2024-04-28_12h41.59.549,ArchivoPrueba,2024.1.1,None,2024-04-28 12h42.11.651648 -0500,
" ¿Recuerda el recorrido desde la entrada de su lugar de trabajo hasta su oficina, donde realiza sus funciones?",9,yellow,0,5,5,5,0,4,4,4,18.814027300000816,,,,,,,,,,,,,,,18.767955600000278,18.814027300000816,18.842492600000696,,,,012346,001,2024-04-28_12h41.59.549,ArchivoPrueba,2024.1.1,None,2024-04-28 12h42.11.651648 -0500,
¿Recuerda alguna actividad que realice durante los viajes de regreso a casa desde el trabajo para relajarse?,11,orange,0,5,5,5,0,5,5,5,18.88039320000098,,,,,,,,,,,,,,,18.843856999999844,18.88039320000098,18.938957700000174,,,,012346,001,2024-04-28_12h41.59.549,ArchivoPrueba,2024.1.1,None,2024-04-28 12h42.11.651648 -0500,
¿Recuerda el trayecto que realiza desde su casa hasta el lugar donde realiza sus compras?,13,brown,0,5,5,5,0,6,6,6,18.996571400000903,,,,,,,,,,,,,,,18.947997999999643,18.996571400000903,19.09677030000057,,,,012346,001,2024-04-28_12h41.59.549,ArchivoPrueba,2024.1.1,None,2024-04-28 12h42.11.651648 -0500,
¿Recuerda alguna situación divertida o interesante que haya experimentado durante el recorrido hacia el lugar de compras?,15,purple,0,5,5,5,0,7,7,7,19.246535700000095,,,,,,,,,,,,,,,19.11857989999953,,19.202423000000636,,,,012346,001,2024-04-28_12h41.59.549,ArchivoPrueba,2024.1.1,None,2024-04-28 12h42.11.651648 -0500,
 ¿Recuerda qué es lo primero que ve al llegar al lugar donde realiza sus compras?,17,green,0,5,5,5,0,8,8,8,19.246535700000095,,,,,,,,,,,,,,,19.203850100000636,19.246535700000095,19.263676000000487,,,,012346,001,2024-04-28_12h41.59.549,ArchivoPrueba,2024.1.1,None,2024-04-28 12h42.11.651648 -0500,
¿Recuerda el recorrido desde su residencia hasta el centro de resonancia magnética?,19,red,0,5,5,5,0,9,9,9,19.357523000000583,,,,,,,,,,,,,,,19.266123200000948,19.357523000000583,19.37189960000069,,,,012346,001,2024-04-28_12h41.59.549,ArchivoPrueba,2024.1.1,None,2024-04-28 12h42.11.651648 -0500,
None,21,white,0,5,5,5,0,10,10,10,19.416259300000092,,,,,,,,,,,,,,,19.373226100000466,19.416259300000092,19.453360400000747,,,,012346,001,2024-04-28_12h41.59.549,ArchivoPrueba,2024.1.1,None,2024-04-28 12h42.11.651648 -0500,
None,23,blue,0,5,5,5,0,11,11,11,19.48215909999999,,,,,,,,,,,,,,,19.45394049999959,19.48215909999999,19.554049100001066,,,,012346,001,2024-04-28_12h41.59.549,ArchivoPrueba,2024.1.1,None,2024-04-28 12h42.11.651648 -0500,
None,25,yellow,0,5,5,5,0,12,12,12,19.595588000000134,,,,,,,,,,,,,,,19.556150100001105,19.595588000000134,19.64456500000051,,,,012346,001,2024-04-28_12h41.59.549,ArchivoPrueba,2024.1.1,None,2024-04-28 12h42.11.651648 -0500,
None,27,orange,0,5,5,5,0,13,13,13,19.678273700001228,,,,,,,,,,,,,,,19.64656719999948,19.678273700001228,19.72733859999971,,,,012346,001,2024-04-28_12h41.59.549,ArchivoPrueba,2024.1.1,None,2024-04-28 12h42.11.651648 -0500,
None,29,brown,0,5,5,5,0,14,14,14,19.762342199999694,,,,,,,,,,,,,,,19.729504900000393,19.762342199999694,19.869087000000945,,,,012346,001,2024-04-28_12h41.59.549,ArchivoPrueba,2024.1.1,None,2024-04-28 12h42.11.651648 -0500,
None,31,purple,0,5,5,5,0,15,15,15,19.975478199999998,,,,,,,,,,,,,,,19.870545400000992,19.975478199999998,20.012670800000706,,,,012346,001,2024-04-28_12h41.59.549,ArchivoPrueba,2024.1.1,None,2024-04-28 12h42.11.651648 -0500,
None,33,green,0,5,5,5,0,16,16,16,20.085511700001007,,,,,,,,,,,,,,,20.014818300000115,,20.028188899999805,,,,012346,001,2024-04-28_12h41.59.549,ArchivoPrueba,2024.1.1,None,2024-04-28 12h42.11.651648 -0500,
None,35,red,0,5,5,5,0,17,17,17,20.085511700001007,,,,,,,,,,,,,,,20.02999020000061,20.085511700001007,20.135699899999963,,,,012346,001,2024-04-28_12h41.59.549,ArchivoPrueba,2024.1.1,None,2024-04-28 12h42.11.651648 -0500,
None,37,white,0,5,5,5,0,18,18,18,20.16214089999994,,,,,,,,,,,,,,,20.136303900000712,20.16214089999994,20.242319599999973,,,,012346,001,2024-04-28_12h41.59.549,ArchivoPrueba,2024.1.1,None,2024-04-28 12h42.11.651648 -0500,
None,39,blue,0,5,5,5,0,19,19,19,20.27679680000074,,,,,,,,,,,,,,,20.243752700000186,20.27679680000074,20.33046699999977,,,,012346,001,2024-04-28_12h41.59.549,ArchivoPrueba,2024.1.1,None,2024-04-28 12h42.11.651648 -0500,
¿Recuerda alguna actividad que realice durante los viajes de regreso a casa desde el trabajo para relajarse?,11,orange,0,5,5,5,,,,,,,,,,,,,,,,,,,,,,,,,,012346,001,2024-04-28_12h41.59.549,ArchivoPrueba,2024.1.1,None,2024-04-28 12h42.11.651648 -0500,
¿Recuerda el recorrido que realiza desde su cama hasta la cocina de su residencia?,1,green,0,6,6,6,0,0,0,0,21.428672000000006,,,,,,,,,,,,20.332505899999887,20.377063300000373,21.34721720000016,21.396556200001214,21.428672000000006,21.446947100001125,,,,012346,001,2024-04-28_12h41.59.549,ArchivoPrueba,2024.1.1,None,2024-04-28 12h42.11.651648 -0500,
¿Recuerda el trayecto que hace desde su casa hasta su lugar de trabajo?,3,red,0,6,6,6,0,1,1,1,21.47897550000016,,,,,,,,,,,,,,,21.44815430000017,21.47897550000016,21.531398799999806,,,,012346,001,2024-04-28_12h41.59.549,ArchivoPrueba,2024.1.1,None,2024-04-28 12h42.11.651648 -0500,
¿Recuerda  algún inconveniente que ha  experimentado en el camino de su residencia a su lugar de trabajo?,5,white,0,6,6,6,0,2,2,2,21.57899980000002,,,,,,,,,,,,,,,21.53251369999998,21.57899980000002,21.62701620000007,,,,012346,001,2024-04-28_12h41.59.549,ArchivoPrueba,2024.1.1,None,2024-04-28 12h42.11.651648 -0500,
¿Recuerda si hay algún lugar u objeto en su camino hacia el trabajo que le llame la atención?,7,blue,0,6,6,6,0,3,3,3,21.659311100000195,,,,,,,,,,,,,,,21.628152400000545,21.659311100000195,21.76268909999999,,,,012346,001,2024-04-28_12h41.59.549,ArchivoPrueba,2024.1.1,None,2024-04-28 12h42.11.651648 -0500,
" ¿Recuerda el recorrido desde la entrada de su lugar de trabajo hasta su oficina, donde realiza sus funciones?",9,yellow,0,6,6,6,0,4,4,4,21.793250400000034,,,,,,,,,,,,,,,21.764051300000574,21.793250400000034,21.834094300000288,,,,012346,001,2024-04-28_12h41.59.549,ArchivoPrueba,2024.1.1,None,2024-04-28 12h42.11.651648 -0500,
¿Recuerda alguna actividad que realice durante los viajes de regreso a casa desde el trabajo para relajarse?,11,orange,0,6,6,6,0,5,5,5,21.858179900000323,,,,,,,,,,,,,,,21.834650599999804,21.858179900000323,21.932034600000406,,,,012346,001,2024-04-28_12h41.59.549,ArchivoPrueba,2024.1.1,None,2024-04-28 12h42.11.651648 -0500,
¿Recuerda el trayecto que realiza desde su casa hasta el lugar donde realiza sus compras?,13,brown,0,6,6,6,0,6,6,6,21.958156200000303,,,,,,,,,,,,,,,21.932614999999714,21.958156200000303,22.0427049000009,,,,012346,001,2024-04-28_12h41.59.549,ArchivoPrueba,2024.1.1,None,2024-04-28 12h42.11.651648 -0500,
¿Recuerda alguna situación divertida o interesante que haya experimentado durante el recorrido hacia el lugar de compras?,15,purple,0,6,6,6,0,7,7,7,22.076043000000936,,,,,,,,,,,,,,,22.04390880000028,22.076043000000936,22.141637300001094,,,,012346,001,2024-04-28_12h41.59.549,ArchivoPrueba,2024.1.1,None,2024-04-28 12h42.11.651648 -0500,
 ¿Recuerda qué es lo primero que ve al llegar al lugar donde realiza sus compras?,17,green,0,6,6,6,0,8,8,8,22.176041000000623,,,,,,,,,,,,,,,22.142876500000057,22.176041000000623,22.260376899999756,,,,012346,001,2024-04-28_12h41.59.549,ArchivoPrueba,2024.1.1,None,2024-04-28 12h42.11.651648 -0500,
¿Recuerda el recorrido desde su residencia hasta el centro de resonancia magnética?,19,red,0,6,6,6,0,9,9,9,22.29279040000074,,,,,,,,,,,,,,,22.26172740000038,22.29279040000074,22.338832000001275,,,,012346,001,2024-04-28_12h41.59.549,ArchivoPrueba,2024.1.1,None,2024-04-28 12h42.11.651648 -0500,
None,21,white,0,6,6,6,0,10,10,10,22.375909200000024,,,,,,,,,,,,,,,22.340490700000373,22.375909200000024,22.42762980000043,,,,012346,001,2024-04-28_12h41.59.549,ArchivoPrueba,2024.1.1,None,2024-04-28 12h42.11.651648 -0500,
None,23,blue,0,6,6,6,0,11,11,11,22.459439100000964,,,,,,,,,,,,,,,22.428632799999832,22.459439100000964,22.542263000001185,,,,012346,001,2024-04-28_12h41.59.549,ArchivoPrueba,2024.1.1,None,2024-04-28 12h42.11.651648 -0500,
None,25,yellow,0,6,6,6,0,12,12,12,22.576696699999957,,,,,,,,,,,,,,,22.54342639999959,22.576696699999957,22.658692700000756,,,,012346,001,2024-04-28_12h41.59.549,ArchivoPrueba,2024.1.1,None,2024-04-28 12h42.11.651648 -0500,
None,27,orange,0,6,6,6,0,13,13,13,22.692535600001065,,,,,,,,,,,,,,,22.659971299999597,22.692535600001065,22.740867000000435,,,,012346,001,2024-04-28_12h41.59.549,ArchivoPrueba,2024.1.1,None,2024-04-28 12h42.11.651648 -0500,
None,29,brown,0,6,6,6,0,14,14,14,22.775907299999744,,,,,,,,,,,,,,,22.74242779999986,22.775907299999744,22.858142600000065,,,,012346,001,2024-04-28_12h41.59.549,ArchivoPrueba,2024.1.1,None,2024-04-28 12h42.11.651648 -0500,
None,31,purple,0,6,6,6,0,15,15,15,22.893060600001263,,,,,,,,,,,,,,,22.859272300000157,22.893060600001263,22.96273939999992,,,,012346,001,2024-04-28_12h41.59.549,ArchivoPrueba,2024.1.1,None,2024-04-28 12h42.11.651648 -0500,
None,33,green,0,6,6,6,0,16,16,16,22.993287299999793,,,,,,,,,,,,,,,22.964070800000627,22.993287299999793,23.059107700000823,,,,012346,001,2024-04-28_12h41.59.549,ArchivoPrueba,2024.1.1,None,2024-04-28 12h42.11.651648 -0500,
None,35,red,0,6,6,6,0,17,17,17,23.093351400000756,,,,,,,,,,,,,,,23.060244800000874,23.093351400000756,23.157803400001285,,,,012346,001,2024-04-28_12h41.59.549,ArchivoPrueba,2024.1.1,None,2024-04-28 12h42.11.651648 -0500,
None,37,white,0,6,6,6,0,18,18,18,23.192388299999948,,,,,,,,,,,,,,,23.158972400000494,23.192388299999948,23.242055900000196,,,,012346,001,2024-04-28_12h41.59.549,ArchivoPrueba,2024.1.1,None,2024-04-28 12h42.11.651648 -0500,
None,39,blue,0,6,6,6,0,19,19,19,23.275590200000806,,,,,,,,,,,,,,,23.24322790000042,23.275590200000806,23.3578379999999,,,,012346,001,2024-04-28_12h41.59.549,ArchivoPrueba,2024.1.1,None,2024-04-28 12h42.11.651648 -0500,
¿Recuerda el trayecto que realiza desde su casa hasta el lugar donde realiza sus compras?,13,brown,0,6,6,6,,,,,,,,,,,,,,,,,,,,,,,,,,012346,001,2024-04-28_12h41.59.549,ArchivoPrueba,2024.1.1,None,2024-04-28 12h42.11.651648 -0500,
¿Recuerda el recorrido que realiza desde su cama hasta la cocina de su residencia?,1,green,0,7,7,7,0,0,0,0,24.42443269999967,,,,,,,,,,,,23.359304400000838,23.4089727999999,24.35963140000058,24.395413800000824,24.42443269999967,24.438675100000182,,,,012346,001,2024-04-28_12h41.59.549,ArchivoPrueba,2024.1.1,None,2024-04-28 12h42.11.651648 -0500,
¿Recuerda el trayecto que hace desde su casa hasta su lugar de trabajo?,3,red,0,7,7,7,0,1,1,1,24.47439210000084,,,,,,,,,,,,,,,24.440158499999598,24.47439210000084,24.558591799999704,,,,012346,001,2024-04-28_12h41.59.549,ArchivoPrueba,2024.1.1,None,2024-04-28 12h42.11.651648 -0500,
¿Recuerda  algún inconveniente que ha  experimentado en el camino de su residencia a su lugar de trabajo?,5,white,0,7,7,7,0,2,2,2,24.59170710000035,,,,,,,,,,,,,,,24.55971370000043,24.59170710000035,24.656932699999743,,,,012346,001,2024-04-28_12h41.59.549,ArchivoPrueba,2024.1.1,None,2024-04-28 12h42.11.651648 -0500,
¿Recuerda si hay algún lugar u objeto en su camino hacia el trabajo que le llame la atención?,7,blue,0,7,7,7,0,3,3,3,24.691070500000933,,,,,,,,,,,,,,,24.65801079999983,24.691070500000933,24.741542200001277,,,,012346,001,2024-04-28_12h41.59.549,ArchivoPrueba,2024.1.1,None,2024-04-28 12h42.11.651648 -0500,
" ¿Recuerda el recorrido desde la entrada de su lugar de trabajo hasta su oficina, donde realiza sus funciones?",9,yellow,0,7,7,7,0,4,4,4,24.77444749999995,,,,,,,,,,,,,,,24.742656000000352,24.77444749999995,24.856913900001018,,,,012346,001,2024-04-28_12h41.59.549,ArchivoPrueba,2024.1.1,None,2024-04-28 12h42.11.651648 -0500,
¿Recuerda alguna actividad que realice durante los viajes de regreso a casa desde el trabajo para relajarse?,11,orange,0,7,7,7,0,5,5,5,24.890938900000037,,,,,,,,,,,,,,,24.858063200001197,24.890938900000037,24.941306599999734,,,,012346,001,2024-04-28_12h41.59.549,ArchivoPrueba,2024.1.1,None,2024-04-28 12h42.11.651648 -0500,
¿Recuerda el trayecto que realiza desde su casa hasta el lugar donde realiza sus compras?,13,brown,0,7,7,7,0,6,6,6,24.974531199999547,,,,,,,,,,,,,,,24.942387099999905,24.974531199999547,25.02730429999974,,,,012346,001,2024-04-28_12h41.59.549,ArchivoPrueba,2024.1.1,None,2024-04-28 12h42.11.651648 -0500,
¿Recuerda alguna situación divertida o interesante que haya experimentado durante el recorrido hacia el lugar de compras?,15,purple,0,7,7,7,0,7,7,7,25.05749079999987,,,,,,,,,,,,,,,25.02865170000041,25.05749079999987,25.158337599999868,,,,012346,001,2024-04-28_12h41.59.549,ArchivoPrueba,2024.1.1,None,2024-04-28 12h42.11.651648 -0500,
 ¿Recuerda qué es lo primero que ve al llegar al lugar donde realiza sus compras?,17,green,0,7,7,7,0,8,8,8,25.190542800000912,,,,,,,,,,,,,,,25.159431199999744,25.190542800000912,25.24040419999983,,,,012346,001,2024-04-28_12h41.59.549,ArchivoPrueba,2024.1.1,None,2024-04-28 12h42.11.651648 -0500,
¿Recuerda el recorrido desde su residencia hasta el centro de resonancia magnética?,19,red,0,7,7,7,0,9,9,9,25.27401380000083,,,,,,,,,,,,,,,25.24160909999955,25.27401380000083,25.357419600000867,,,,012346,001,2024-04-28_12h41.59.549,ArchivoPrueba,2024.1.1,None,2024-04-28 12h42.11.651648 -0500,
None,21,white,0,7,7,7,0,10,10,10,25.390477200000532,,,,,,,,,,,,,,,25.358545400000366,25.390477200000532,25.440296599999783,,,,012346,001,2024-04-28_12h41.59.549,ArchivoPrueba,2024.1.1,None,2024-04-28 12h42.11.651648 -0500,
None,23,blue,0,7,7,7,0,11,11,11,25.474033399999826,,,,,,,,,,,,,,,25.44132510000054,25.474033399999826,25.55712289999974,,,,012346,001,2024-04-28_12h41.59.549,ArchivoPrueba,2024.1.1,None,2024-04-28 12h42.11.651648 -0500,
None,25,yellow,0,7,7,7,0,12,12,12,25.607026800000313,,,,,,,,,,,,,,,25.558505299999524,25.607026800000313,25.656487800000832,,,,012346,001,2024-04-28_12h41.59.549,ArchivoPrueba,2024.1.1,None,2024-04-28 12h42.11.651648 -0500,
None,27,orange,0,7,7,7,0,13,13,13,25.690582500001256,,,,,,,,,,,,,,,25.657683200000974,25.690582500001256,25.74604300000101,,,,012346,001,2024-04-28_12h41.59.549,ArchivoPrueba,2024.1.1,None,2024-04-28 12h42.11.651648 -0500,
None,29,brown,0,7,7,7,0,14,14,14,25.77344129999983,,,,,,,,,,,,,,,25.747286199999508,25.77344129999983,25.860703399999693,,,,012346,001,2024-04-28_12h41.59.549,ArchivoPrueba,2024.1.1,None,2024-04-28 12h42.11.651648 -0500,
None,31,purple,0,7,7,7,0,15,15,15,25.890139200000704,,,,,,,,,,,,,,,25.862036000000444,25.890139200000704,25.95960170000035,,,,012346,001,2024-04-28_12h41.59.549,ArchivoPrueba,2024.1.1,None,2024-04-28 12h42.11.651648 -0500,
None,33,green,0,7,7,7,0,16,16,16,25.99104989999978,,,,,,,,,,,,,,,25.961017499999798,25.99104989999978,26.060117700000774,,,,012346,001,2024-04-28_12h41.59.549,ArchivoPrueba,2024.1.1,None,2024-04-28 12h42.11.651648 -0500,
None,35,red,0,7,7,7,0,17,17,17,26.107769800000824,,,,,,,,,,,,,,,26.06203749999986,26.107769800000824,26.13191209999968,,,,012346,001,2024-04-28_12h41.59.549,ArchivoPrueba,2024.1.1,None,2024-04-28 12h42.11.651648 -0500,
None,37,white,0,7,7,7,0,18,18,18,26.17299720000119,,,,,,,,,,,,,,,26.13306940000075,26.17299720000119,26.271112899999935,,,,012346,001,2024-04-28_12h41.59.549,ArchivoPrueba,2024.1.1,None,2024-04-28 12h42.11.651648 -0500,
None,39,blue,0,7,7,7,0,19,19,19,26.306082299999616,,,,,,,,,,,,,,,26.272265999999945,26.306082299999616,26.364307499999995,,,,012346,001,2024-04-28_12h41.59.549,ArchivoPrueba,2024.1.1,None,2024-04-28 12h42.11.651648 -0500,
¿Recuerda alguna situación divertida o interesante que haya experimentado durante el recorrido hacia el lugar de compras?,15,purple,0,7,7,7,,,,,,,,,,,,,,,,,,,,,,,,,,012346,001,2024-04-28_12h41.59.549,ArchivoPrueba,2024.1.1,None,2024-04-28 12h42.11.651648 -0500,
¿Recuerda el recorrido que realiza desde su cama hasta la cocina de su residencia?,1,green,0,8,8,8,0,0,0,0,27.42215010000109,,,,,,,,,,,,26.36654240000098,26.421302900000228,27.35783160000028,27.39690800000062,27.42215010000109,27.43862319999971,,,,012346,001,2024-04-28_12h41.59.549,ArchivoPrueba,2024.1.1,None,2024-04-28 12h42.11.651648 -0500,
¿Recuerda el trayecto que hace desde su casa hasta su lugar de trabajo?,3,red,0,8,8,8,0,1,1,1,27.47199189999992,,,,,,,,,,,,,,,27.439733200000774,27.47199189999992,27.555327000000034,,,,012346,001,2024-04-28_12h41.59.549,ArchivoPrueba,2024.1.1,None,2024-04-28 12h42.11.651648 -0500,
¿Recuerda  algún inconveniente que ha  experimentado en el camino de su residencia a su lugar de trabajo?,5,white,0,8,8,8,0,2,2,2,27.588752499999828,,,,,,,,,,,,,,,27.556467300000804,27.588752499999828,27.638494300001184,,,,012346,001,2024-04-28_12h41.59.549,ArchivoPrueba,2024.1.1,None,2024-04-28 12h42.11.651648 -0500,
¿Recuerda si hay algún lugar u objeto en su camino hacia el trabajo que le llame la atención?,7,blue,0,8,8,8,0,3,3,3,27.671906800000215,,,,,,,,,,,,,,,27.63991460000034,27.671906800000215,27.752641700000822,,,,012346,001,2024-04-28_12h41.59.549,ArchivoPrueba,2024.1.1,None,2024-04-28 12h42.11.651648 -0500,
" ¿Recuerda el recorrido desde la entrada de su lugar de trabajo hasta su oficina, donde realiza sus funciones?",9,yellow,0,8,8,8,0,4,4,4,27.788551600000574,,,,,,,,,,,,,,,27.754019600000902,27.788551600000574,27.838025400000333,,,,012346,001,2024-04-28_12h41.59.549,ArchivoPrueba,2024.1.1,None,2024-04-28 12h42.11.651648 -0500,
¿Recuerda alguna actividad que realice durante los viajes de regreso a casa desde el trabajo para relajarse?,11,orange,0,8,8,8,0,5,5,5,27.871840800000427,,,,,,,,,,,,,,,27.83919120000064,27.871840800000427,27.95422900000085,,,,012346,001,2024-04-28_12h41.59.549,ArchivoPrueba,2024.1.1,None,2024-04-28 12h42.11.651648 -0500,
¿Recuerda el trayecto que realiza desde su casa hasta el lugar donde realiza sus compras?,13,brown,0,8,8,8,0,6,6,6,27.988176500000918,,,,,,,,,,,,,,,27.9554076000004,27.988176500000918,28.039521400000012,,,,012346,001,2024-04-28_12h41.59.549,ArchivoPrueba,2024.1.1,None,2024-04-28 12h42.11.651648 -0500,
¿Recuerda alguna situación divertida o interesante que haya experimentado durante el recorrido hacia el lugar de compras?,15,purple,0,8,8,8,0,7,7,7,28.072070300000632,,,,,,,,,,,,,,,28.040919900000517,28.072070300000632,28.144645800000944,,,,012346,001,2024-04-28_12h41.59.549,ArchivoPrueba,2024.1.1,None,2024-04-28 12h42.11.651648 -0500,
 ¿Recuerda qué es lo primero que ve al llegar al lugar donde realiza sus compras?,17,green,0,8,8,8,0,8,8,8,28.171230699999796,,,,,,,,,,,,,,,28.14571109999997,28.171230699999796,28.254243499999575,,,,012346,001,2024-04-28_12h41.59.549,ArchivoPrueba,2024.1.1,None,2024-04-28 12h42.11.651648 -0500,
¿Recuerda el recorrido desde su residencia hasta el centro de resonancia magnética?,19,red,0,8,8,8,0,9,9,9,28.287983300000633,,,,,,,,,,,,,,,28.25536210000064,28.287983300000633,28.33731970000008,,,,012346,001,2024-04-28_12h41.59.549,ArchivoPrueba,2024.1.1,None,2024-04-28 12h42.11.651648 -0500,
None,21,white,0,8,8,8,0,10,10,10,28.371006400000624,,,,,,,,,,,,,,,28.33849569999984,28.371006400000624,28.450279300001057,,,,012346,001,2024-04-28_12h41.59.549,ArchivoPrueba,2024.1.1,None,2024-04-28 12h42.11.651648 -0500,
None,23,blue,0,8,8,8,0,11,11,11,28.487857899999653,,,,,,,,,,,,,,,28.451915200001167,28.487857899999653,28.53448500000013,,,,012346,001,2024-04-28_12h41.59.549,ArchivoPrueba,2024.1.1,None,2024-04-28 12h42.11.651648 -0500,
None,25,yellow,0,8,8,8,0,12,12,12,28.57085890000053,,,,,,,,,,,,,,,28.535818700000164,28.57085890000053,28.652392699999837,,,,012346,001,2024-04-28_12h41.59.549,ArchivoPrueba,2024.1.1,None,2024-04-28 12h42.11.651648 -0500,
None,27,orange,0,8,8,8,0,13,13,13,28.687306800000442,,,,,,,,,,,,,,,28.653410200000508,28.687306800000442,28.734096000000136,,,,012346,001,2024-04-28_12h41.59.549,ArchivoPrueba,2024.1.1,None,2024-04-28 12h42.11.651648 -0500,
None,29,brown,0,8,8,8,0,14,14,14,28.77072810000027,,,,,,,,,,,,,,,28.735310500000196,28.77072810000027,28.85111970000071,,,,012346,001,2024-04-28_12h41.59.549,ArchivoPrueba,2024.1.1,None,2024-04-28 12h42.11.651648 -0500,
None,31,purple,0,8,8,8,0,15,15,15,28.887137400000938,,,,,,,,,,,,,,,28.852312500001062,28.887137400000938,28.934573900000032,,,,012346,001,2024-04-28_12h41.59.549,ArchivoPrueba,2024.1.1,None,2024-04-28 12h42.11.651648 -0500,
None,33,green,0,8,8,8,0,16,16,16,28.970425800000157,,,,,,,,,,,,,,,28.935716600000887,28.970425800000157,29.05056180000065,,,,012346,001,2024-04-28_12h41.59.549,ArchivoPrueba,2024.1.1,None,2024-04-28 12h42.11.651648 -0500,
None,35,red,0,8,8,8,0,17,17,17,29.08754829999998,,,,,,,,,,,,,,,29.051875299999665,29.08754829999998,29.150228900000002,,,,012346,001,2024-04-28_12h41.59.549,ArchivoPrueba,2024.1.1,None,2024-04-28 12h42.11.651648 -0500,
None,37,white,0,8,8,8,0,18,18,18,29.186910700000226,,,,,,,,,,,,,,,29.15140650000103,29.186910700000226,29.235095199999705,,,,012346,001,2024-04-28_12h41.59.549,ArchivoPrueba,2024.1.1,None,2024-04-28 12h42.11.651648 -0500,
None,39,blue,0,8,8,8,0,19,19,19,29.270448400000532,,,,,,,,,,,,,,,29.236216299999796,29.270448400000532,29.350095100000544,,,,012346,001,2024-04-28_12h41.59.549,ArchivoPrueba,2024.1.1,None,2024-04-28 12h42.11.651648 -0500,
 ¿Recuerda qué es lo primero que ve al llegar al lugar donde realiza sus compras?,17,green,0,8,8,8,,,,,,,,,,,,,,,,,,,,,,,,,,012346,001,2024-04-28_12h41.59.549,ArchivoPrueba,2024.1.1,None,2024-04-28 12h42.11.651648 -0500,
¿Recuerda el recorrido que realiza desde su cama hasta la cocina de su residencia?,1,green,0,9,9,9,0,0,0,0,30.419075499999963,,,,,,,,,,,,29.351583499999833,29.387297999999646,30.35030689999985,30.384013500000947,30.419075499999963,30.431901600000856,,,,012346,001,2024-04-28_12h41.59.549,ArchivoPrueba,2024.1.1,None,2024-04-28 12h42.11.651648 -0500,
¿Recuerda el trayecto que hace desde su casa hasta su lugar de trabajo?,3,red,0,9,9,9,0,1,1,1,30.469035399999484,,,,,,,,,,,,,,,30.43346829999973,30.469035399999484,30.54960050000045,,,,012346,001,2024-04-28_12h41.59.549,ArchivoPrueba,2024.1.1,None,2024-04-28 12h42.11.651648 -0500,
¿Recuerda  algún inconveniente que ha  experimentado en el camino de su residencia a su lugar de trabajo?,5,white,0,9,9,9,0,2,2,2,30.586002000000008,,,,,,,,,,,,,,,30.550906599999507,30.586002000000008,30.632943000000523,,,,012346,001,2024-04-28_12h41.59.549,ArchivoPrueba,2024.1.1,None,2024-04-28 12h42.11.651648 -0500,
¿Recuerda si hay algún lugar u objeto en su camino hacia el trabajo que le llame la atención?,7,blue,0,9,9,9,0,3,3,3,30.668998799999827,,,,,,,,,,,,,,,30.63438959999985,30.668998799999827,30.749299500001143,,,,012346,001,2024-04-28_12h41.59.549,ArchivoPrueba,2024.1.1,None,2024-04-28 12h42.11.651648 -0500,
" ¿Recuerda el recorrido desde la entrada de su lugar de trabajo hasta su oficina, donde realiza sus funciones?",9,yellow,0,9,9,9,0,4,4,4,30.785794600000372,,,,,,,,,,,,,,,30.750777400000516,30.785794600000372,30.83283980000124,,,,012346,001,2024-04-28_12h41.59.549,ArchivoPrueba,2024.1.1,None,2024-04-28 12h42.11.651648 -0500,
¿Recuerda alguna actividad que realice durante los viajes de regreso a casa desde el trabajo para relajarse?,11,orange,0,9,9,9,0,5,5,5,30.868772800000443,,,,,,,,,,,,,,,30.83399509999981,30.868772800000443,30.949630299999626,,,,012346,001,2024-04-28_12h41.59.549,ArchivoPrueba,2024.1.1,None,2024-04-28 12h42.11.651648 -0500,
¿Recuerda el trayecto que realiza desde su casa hasta el lugar donde realiza sus compras?,13,brown,0,9,9,9,0,6,6,6,30.985372799999823,,,,,,,,,,,,,,,30.950756500000352,30.985372799999823,31.032299800001056,,,,012346,001,2024-04-28_12h41.59.549,ArchivoPrueba,2024.1.1,None,2024-04-28 12h42.11.651648 -0500,
¿Recuerda alguna situación divertida o interesante que haya experimentado durante el recorrido hacia el lugar de compras?,15,purple,0,9,9,9,0,7,7,7,31.06896290000077,,,,,,,,,,,,,,,31.033536000000822,31.06896290000077,31.130201500000112,,,,012346,001,2024-04-28_12h41.59.549,ArchivoPrueba,2024.1.1,None,2024-04-28 12h42.11.651648 -0500,
 ¿Recuerda qué es lo primero que ve al llegar al lugar donde realiza sus compras?,17,green,0,9,9,9,0,8,8,8,31.168977499999528,,,,,,,,,,,,,,,31.132014200000413,31.168977499999528,31.24636660000033,,,,012346,001,2024-04-28_12h41.59.549,ArchivoPrueba,2024.1.1,None,2024-04-28 12h42.11.651648 -0500,
¿Recuerda el recorrido desde su residencia hasta el centro de resonancia magnética?,19,red,0,9,9,9,0,9,9,9,31.285064200001216,,,,,,,,,,,,,,,31.247397000001,31.285064200001216,31.329422599999816,,,,012346,001,2024-04-28_12h41.59.549,ArchivoPrueba,2024.1.1,None,2024-04-28 12h42.11.651648 -0500,
None,21,white,0,9,9,9,0,10,10,10,31.368480900000577,,,,,,,,,,,,,,,31.330368000000817,31.368480900000577,31.448724100000618,,,,012346,001,2024-04-28_12h41.59.549,ArchivoPrueba,2024.1.1,None,2024-04-28 12h42.11.651648 -0500,
None,23,blue,0,9,9,9,0,11,11,11,31.48498649999965,,,,,,,,,,,,,,,31.44991839999966,31.48498649999965,31.529292999999598,,,,012346,001,2024-04-28_12h41.59.549,ArchivoPrueba,2024.1.1,None,2024-04-28 12h42.11.651648 -0500,
None,25,yellow,0,9,9,9,0,12,12,12,31.568935499999498,,,,,,,,,,,,,,,31.530275099999926,31.568935499999498,31.648016900000584,,,,012346,001,2024-04-28_12h41.59.549,ArchivoPrueba,2024.1.1,None,2024-04-28 12h42.11.651648 -0500,
None,27,orange,0,9,9,9,0,13,13,13,31.684765199999674,,,,,,,,,,,,,,,31.649374300001,31.684765199999674,31.731445900000836,,,,012346,001,2024-04-28_12h41.59.549,ArchivoPrueba,2024.1.1,None,2024-04-28 12h42.11.651648 -0500,
None,29,brown,0,9,9,9,0,14,14,14,31.768026400000963,,,,,,,,,,,,,,,31.732851700000538,31.768026400000963,31.84876340000119,,,,012346,001,2024-04-28_12h41.59.549,ArchivoPrueba,2024.1.1,None,2024-04-28 12h42.11.651648 -0500,
None,31,purple,0,9,9,9,0,15,15,15,31.88457550000021,,,,,,,,,,,,,,,31.849869699999545,31.88457550000021,31.929631799999697,,,,012346,001,2024-04-28_12h41.59.549,ArchivoPrueba,2024.1.1,None,2024-04-28 12h42.11.651648 -0500,
None,33,green,0,9,9,9,0,16,16,16,31.967762100000982,,,,,,,,,,,,,,,31.93129770000087,31.967762100000982,32.04889209999965,,,,012346,001,2024-04-28_12h41.59.549,ArchivoPrueba,2024.1.1,None,2024-04-28 12h42.11.651648 -0500,
None,35,red,0,9,9,9,0,17,17,17,32.08463699999993,,,,,,,,,,,,,,,32.05003930000021,32.08463699999993,32.146528700001,,,,012346,001,2024-04-28_12h41.59.549,ArchivoPrueba,2024.1.1,None,2024-04-28 12h42.11.651648 -0500,
None,37,white,0,9,9,9,0,18,18,18,32.184157499999856,,,,,,,,,,,,,,,32.147742900000594,32.184157499999856,32.22957590000078,,,,012346,001,2024-04-28_12h41.59.549,ArchivoPrueba,2024.1.1,None,2024-04-28 12h42.11.651648 -0500,
None,39,blue,0,9,9,9,0,19,19,19,32.267332700001134,,,,,,,,,,,,,,,32.23128999999972,32.267332700001134,32.34813380000014,,,,012346,001,2024-04-28_12h41.59.549,ArchivoPrueba,2024.1.1,None,2024-04-28 12h42.11.651648 -0500,
¿Recuerda el recorrido desde su residencia hasta el centro de resonancia magnética?,19,red,0,9,9,9,,,,,,,,,,,,,,,,,,,,,,,,,,012346,001,2024-04-28_12h41.59.549,ArchivoPrueba,2024.1.1,None,2024-04-28 12h42.11.651648 -0500,
¿Recuerda el recorrido que realiza desde su cama hasta la cocina de su residencia?,1,green,0,10,10,10,0,0,0,0,33.41660700000102,,,,,,,,,,,,32.34944130000076,32.384307100001024,33.350220700000136,33.383415700000114,33.41660700000102,33.43082200000026,,,,012346,001,2024-04-28_12h41.59.549,ArchivoPrueba,2024.1.1,None,2024-04-28 12h42.11.651648 -0500,
¿Recuerda el trayecto que hace desde su casa hasta su lugar de trabajo?,3,red,0,10,10,10,0,1,1,1,33.46674900000107,,,,,,,,,,,,,,,33.431879200001276,33.46674900000107,33.54581010000038,,,,012346,001,2024-04-28_12h41.59.549,ArchivoPrueba,2024.1.1,None,2024-04-28 12h42.11.651648 -0500,
¿Recuerda  algún inconveniente que ha  experimentado en el camino de su residencia a su lugar de trabajo?,5,white,0,10,10,10,0,2,2,2,33.58303569999953,,,,,,,,,,,,,,,33.547614000000976,33.58303569999953,33.63176829999975,,,,012346,001,2024-04-28_12h41.59.549,ArchivoPrueba,2024.1.1,None,2024-04-28 12h42.11.651648 -0500,
¿Recuerda si hay algún lugar u objeto en su camino hacia el trabajo que le llame la atención?,7,blue,0,10,10,10,0,3,3,3,33.66661469999963,,,,,,,,,,,,,,,33.63287029999992,33.66661469999963,33.744805800000904,,,,012346,001,2024-04-28_12h41.59.549,ArchivoPrueba,2024.1.1,None,2024-04-28 12h42.11.651648 -0500,
" ¿Recuerda el recorrido desde la entrada de su lugar de trabajo hasta su oficina, donde realiza sus funciones?",9,yellow,0,10,10,10,0,4,4,4,33.782837599999766,,,,,,,,,,,,,,,33.74763510000048,33.782837599999766,33.83083120000083,,,,012346,001,2024-04-28_12h41.59.549,ArchivoPrueba,2024.1.1,None,2024-04-28 12h42.11.651648 -0500,
¿Recuerda alguna actividad que realice durante los viajes de regreso a casa desde el trabajo para relajarse?,11,orange,0,10,10,10,0,5,5,5,33.86655840000094,,,,,,,,,,,,,,,33.831967399999485,33.86655840000094,33.94640860000072,,,,012346,001,2024-04-28_12h41.59.549,ArchivoPrueba,2024.1.1,None,2024-04-28 12h42.11.651648 -0500,
¿Recuerda el trayecto que realiza desde su casa hasta el lugar donde realiza sus compras?,13,brown,0,10,10,10,0,6,6,6,33.98275670000112,,,,,,,,,,,,,,,33.94763090000015,33.98275670000112,34.02927269999964,,,,012346,001,2024-04-28_12h41.59.549,ArchivoPrueba,2024.1.1,None,2024-04-28 12h42.11.651648 -0500,
¿Recuerda alguna situación divertida o interesante que haya experimentado durante el recorrido hacia el lugar de compras?,15,purple,0,10,10,10,0,7,7,7,34.06611830000111,,,,,,,,,,,,,,,34.03036830000019,34.06611830000111,34.16112989999965,,,,012346,001,2024-04-28_12h41.59.549,ArchivoPrueba,2024.1.1,None,2024-04-28 12h42.11.651648 -0500,
 ¿Recuerda qué es lo primero que ve al llegar al lugar donde realiza sus compras?,17,green,0,10,10,10,0,8,8,8,34.1993309999998,,,,,,,,,,,,,,,34.162896300000284,34.1993309999998,34.24646270000085,,,,012346,001,2024-04-28_12h41.59.549,ArchivoPrueba,2024.1.1,None,2024-04-28 12h42.11.651648 -0500,
¿Recuerda el recorrido desde su residencia hasta el centro de resonancia magnética?,19,red,0,10,10,10,0,9,9,9,34.2824813999996,,,,,,,,,,,,,,,34.247691500000656,34.2824813999996,34.32822000000124,,,,012346,001,2024-04-28_12h41.59.549,ArchivoPrueba,2024.1.1,None,2024-04-28 12h42.11.651648 -0500,
None,21,white,0,10,10,10,0,10,10,10,34.365784699999494,,,,,,,,,,,,,,,34.330173000000286,34.365784699999494,34.44655650000095,,,,012346,001,2024-04-28_12h41.59.549,ArchivoPrueba,2024.1.1,None,2024-04-28 12h42.11.651648 -0500,
None,23,blue,0,10,10,10,0,11,11,11,34.483086500000354,,,,,,,,,,,,,,,34.44777350000004,34.483086500000354,34.52845789999992,,,,012346,001,2024-04-28_12h41.59.549,ArchivoPrueba,2024.1.1,None,2024-04-28 12h42.11.651648 -0500,
None,25,yellow,0,10,10,10,0,12,12,12,34.56588750000083,,,,,,,,,,,,,,,34.53119180000067,34.56588750000083,34.629758299999594,,,,012346,001,2024-04-28_12h41.59.549,ArchivoPrueba,2024.1.1,None,2024-04-28 12h42.11.651648 -0500,
None,27,orange,0,10,10,10,0,13,13,13,34.665631300000314,,,,,,,,,,,,,,,34.631005500001265,34.665631300000314,34.76264530000117,,,,012346,001,2024-04-28_12h41.59.549,ArchivoPrueba,2024.1.1,None,2024-04-28 12h42.11.651648 -0500,
None,29,brown,0,10,10,10,0,14,14,14,34.798954500000036,,,,,,,,,,,,,,,34.76431030000094,34.798954500000036,34.8473496000006,,,,012346,001,2024-04-28_12h41.59.549,ArchivoPrueba,2024.1.1,None,2024-04-28 12h42.11.651648 -0500,
None,31,purple,0,10,10,10,0,15,15,15,34.88187939999989,,,,,,,,,,,,,,,34.84842709999975,34.88187939999989,34.96345339999971,,,,012346,001,2024-04-28_12h41.59.549,ArchivoPrueba,2024.1.1,None,2024-04-28 12h42.11.651648 -0500,
None,33,green,0,10,10,10,0,16,16,16,34.99872610000057,,,,,,,,,,,,,,,34.96439240000109,34.99872610000057,35.04530859999977,,,,012346,001,2024-04-28_12h41.59.549,ArchivoPrueba,2024.1.1,None,2024-04-28 12h42.11.651648 -0500,
None,35,red,0,10,10,10,0,17,17,17,35.08179240000027,,,,,,,,,,,,,,,35.04645700000037,35.08179240000027,35.145822399999815,,,,012346,001,2024-04-28_12h41.59.549,ArchivoPrueba,2024.1.1,None,2024-04-28 12h42.11.651648 -0500,
None,37,white,0,10,10,10,0,18,18,18,35.181594400000904,,,,,,,,,,,,,,,35.14693710000029,35.181594400000904,35.22909830000026,,,,012346,001,2024-04-28_12h41.59.549,ArchivoPrueba,2024.1.1,None,2024-04-28 12h42.11.651648 -0500,
None,39,blue,0,10,10,10,0,19,19,19,35.26505739999993,,,,,,,,,,,,,,,35.230189699999755,35.26505739999993,35.34508620000088,,,,012346,001,2024-04-28_12h41.59.549,ArchivoPrueba,2024.1.1,None,2024-04-28 12h42.11.651648 -0500,
None,21,white,0,10,10,10,,,,,,,,,,,,,,,,,,,,,,,,,,012346,001,2024-04-28_12h41.59.549,ArchivoPrueba,2024.1.1,None,2024-04-28 12h42.11.651648 -0500,
¿Recuerda el recorrido que realiza desde su cama hasta la cocina de su residencia?,1,green,0,11,11,11,0,0,0,0,36.39700410000114,,,,,,,,,,,,35.34641350000129,35.381500499999675,36.345545300000595,36.37591969999994,36.39700410000114,36.44187150000107,,,,012346,001,2024-04-28_12h41.59.549,ArchivoPrueba,2024.1.1,None,2024-04-28 12h42.11.651648 -0500,
¿Recuerda el trayecto que hace desde su casa hasta su lugar de trabajo?,3,red,0,11,11,11,0,1,1,1,36.463677600000665,,,,,,,,,,,,,,,36.44315640000059,36.463677600000665,36.54421680000087,,,,012346,001,2024-04-28_12h41.59.549,ArchivoPrueba,2024.1.1,None,2024-04-28 12h42.11.651648 -0500,
¿Recuerda  algún inconveniente que ha  experimentado en el camino de su residencia a su lugar de trabajo?,5,white,0,11,11,11,0,2,2,2,36.58117730000049,,,,,,,,,,,,,,,36.545881400001235,36.58117730000049,36.65624510000089,,,,012346,001,2024-04-28_12h41.59.549,ArchivoPrueba,2024.1.1,None,2024-04-28 12h42.11.651648 -0500,
¿Recuerda si hay algún lugar u objeto en su camino hacia el trabajo que le llame la atención?,7,blue,0,11,11,11,0,3,3,3,36.67996110000058,,,,,,,,,,,,,,,36.6572157999999,36.67996110000058,36.77199070000097,,,,012346,001,2024-04-28_12h41.59.549,ArchivoPrueba,2024.1.1,None,2024-04-28 12h42.11.651648 -0500,
" ¿Recuerda el recorrido desde la entrada de su lugar de trabajo hasta su oficina, donde realiza sus funciones?",9,yellow,0,11,11,11,0,4,4,4,36.81436190000022,,,,,,,,,,,,,,,36.775479500000074,36.81436190000022,36.83867240000109,,,,012346,001,2024-04-28_12h41.59.549,ArchivoPrueba,2024.1.1,None,2024-04-28 12h42.11.651648 -0500,
¿Recuerda alguna actividad que realice durante los viajes de regreso a casa desde el trabajo para relajarse?,11,orange,0,11,11,11,0,5,5,5,36.87975809999989,,,,,,,,,,,,,,,36.840103100001215,36.87975809999989,36.95145650000086,,,,012346,001,2024-04-28_12h41.59.549,ArchivoPrueba,2024.1.1,None,2024-04-28 12h42.11.651648 -0500,
¿Recuerda el trayecto que realiza desde su casa hasta el lugar donde realiza sus compras?,13,brown,0,11,11,11,0,6,6,6,36.980469000000085,,,,,,,,,,,,,,,36.9519693000002,36.980469000000085,37.06179119999979,,,,012346,001,2024-04-28_12h41.59.549,ArchivoPrueba,2024.1.1,None,2024-04-28 12h42.11.651648 -0500,
¿Recuerda alguna situación divertida o interesante que haya experimentado durante el recorrido hacia el lugar de compras?,15,purple,0,11,11,11,0,7,7,7,37.09722750000037,,,,,,,,,,,,,,,37.062793999999485,37.09722750000037,37.156251899999916,,,,012346,001,2024-04-28_12h41.59.549,ArchivoPrueba,2024.1.1,None,2024-04-28 12h42.11.651648 -0500,
 ¿Recuerda qué es lo primero que ve al llegar al lugar donde realiza sus compras?,17,green,0,11,11,11,0,8,8,8,37.17982040000061,,,,,,,,,,,,,,,37.15751730000011,37.17982040000061,37.22697049999988,,,,012346,001,2024-04-28_12h41.59.549,ArchivoPrueba,2024.1.1,None,2024-04-28 12h42.11.651648 -0500,
¿Recuerda el recorrido desde su residencia hasta el centro de resonancia magnética?,19,red,0,11,11,11,0,9,9,9,37.26291990000027,,,,,,,,,,,,,,,37.22829780000029,37.26291990000027,37.34126370000013,,,,012346,001,2024-04-28_12h41.59.549,ArchivoPrueba,2024.1.1,None,2024-04-28 12h42.11.651648 -0500,
None,21,white,0,11,11,11,0,10,10,10,37.379404299999806,,,,,,,,,,,,,,,37.3428270000004,37.379404299999806,37.45771799999966,,,,012346,001,2024-04-28_12h41.59.549,ArchivoPrueba,2024.1.1,None,2024-04-28 12h42.11.651648 -0500,
None,23,blue,0,11,11,11,0,11,11,11,37.47951970000031,,,,,,,,,,,,,,,37.45928120000099,37.47951970000031,37.5565344000006,,,,012346,001,2024-04-28_12h41.59.549,ArchivoPrueba,2024.1.1,None,2024-04-28 12h42.11.651648 -0500,
None,25,yellow,0,11,11,11,0,12,12,12,37.59622769999987,,,,,,,,,,,,,,,37.557469800000035,37.59622769999987,37.64021959999991,,,,012346,001,2024-04-28_12h41.59.549,ArchivoPrueba,2024.1.1,None,2024-04-28 12h42.11.651648 -0500,
None,27,orange,0,11,11,11,0,13,13,13,37.66274760000124,,,,,,,,,,,,,,,37.641333499999746,37.66274760000124,37.741118600000846,,,,012346,001,2024-04-28_12h41.59.549,ArchivoPrueba,2024.1.1,None,2024-04-28 12h42.11.651648 -0500,
None,29,brown,0,11,11,11,0,14,14,14,37.779432799999995,,,,,,,,,,,,,,,37.742507099999784,37.779432799999995,37.85681790000126,,,,012346,001,2024-04-28_12h41.59.549,ArchivoPrueba,2024.1.1,None,2024-04-28 12h42.11.651648 -0500,
None,31,purple,0,11,11,11,0,15,15,15,37.87954239999999,,,,,,,,,,,,,,,37.85790749999978,37.87954239999999,37.95744720000039,,,,012346,001,2024-04-28_12h41.59.549,ArchivoPrueba,2024.1.1,None,2024-04-28 12h42.11.651648 -0500,
None,33,green,0,11,11,11,0,16,16,16,37.97892429999956,,,,,,,,,,,,,,,37.958856500001275,37.97892429999956,38.05676250000033,,,,012346,001,2024-04-28_12h41.59.549,ArchivoPrueba,2024.1.1,None,2024-04-28 12h42.11.651648 -0500,
None,35,red,0,11,11,11,0,17,17,17,38.07910310000079,,,,,,,,,,,,,,,38.05770940000002,38.07910310000079,38.12759410000035,,,,012346,001,2024-04-28_12h41.59.549,ArchivoPrueba,2024.1.1,None,2024-04-28 12h42.11.651648 -0500,
None,37,white,0,11,11,11,0,18,18,18,38.162547600000835,,,,,,,,,,,,,,,38.128566900000806,38.162547600000835,38.24308790000032,,,,012346,001,2024-04-28_12h41.59.549,ArchivoPrueba,2024.1.1,None,2024-04-28 12h42.11.651648 -0500,
None,39,blue,0,11,11,11,0,19,19,19,38.279065900000205,,,,,,,,,,,,,,,38.244460199999594,38.279065900000205,38.35927000000083,,,,012346,001,2024-04-28_12h41.59.549,ArchivoPrueba,2024.1.1,None,2024-04-28 12h42.11.651648 -0500,
None,23,blue,0,11,11,11,,,,,,,,,,,,,,,,,,,,,,,,,,012346,001,2024-04-28_12h41.59.549,ArchivoPrueba,2024.1.1,None,2024-04-28 12h42.11.651648 -0500,
¿Recuerda el recorrido que realiza desde su cama hasta la cocina de su residencia?,1,green,0,12,12,12,0,0,0,0,39.394838100000925,,,,,,,,,,,,38.36077490000025,38.39603449999959,39.34053649999987,39.369017500001064,39.394838100000925,39.438810300000114,,,,012346,001,2024-04-28_12h41.59.549,ArchivoPrueba,2024.1.1,None,2024-04-28 12h42.11.651648 -0500,
¿Recuerda el trayecto que hace desde su casa hasta su lugar de trabajo?,3,red,0,12,12,12,0,1,1,1,39.46148280000125,,,,,,,,,,,,,,,39.4395882000008,39.46148280000125,39.558513400001175,,,,012346,001,2024-04-28_12h41.59.549,ArchivoPrueba,2024.1.1,None,2024-04-28 12h42.11.651648 -0500,
¿Recuerda  algún inconveniente que ha  experimentado en el camino de su residencia a su lugar de trabajo?,5,white,0,12,12,12,0,2,2,2,39.59561659999963,,,,,,,,,,,,,,,39.559432600000946,39.59561659999963,39.63464690000001,,,,012346,001,2024-04-28_12h41.59.549,ArchivoPrueba,2024.1.1,None,2024-04-28 12h42.11.651648 -0500,
¿Recuerda si hay algún lugar u objeto en su camino hacia el trabajo que le llame la atención?,7,blue,0,12,12,12,0,3,3,3,39.66244279999955,,,,,,,,,,,,,,,39.63512980000087,39.66244279999955,39.73687869999958,,,,012346,001,2024-04-28_12h41.59.549,ArchivoPrueba,2024.1.1,None,2024-04-28 12h42.11.651648 -0500,
" ¿Recuerda el recorrido desde la entrada de su lugar de trabajo hasta su oficina, donde realiza sus funciones?",9,yellow,0,12,12,12,0,4,4,4,39.77780800000073,,,,,,,,,,,,,,,39.73737880000044,39.77780800000073,39.8511481000005,,,,012346,001,2024-04-28_12h41.59.549,ArchivoPrueba,2024.1.1,None,2024-04-28 12h42.11.651648 -0500,
¿Recuerda alguna actividad que realice durante los viajes de regreso a casa desde el trabajo para relajarse?,11,orange,0,12,12,12,0,5,5,5,39.88964230000056,,,,,,,,,,,,,,,39.85206440000002,39.88964230000056,39.95455000000038,,,,012346,001,2024-04-28_12h41.59.549,ArchivoPrueba,2024.1.1,None,2024-04-28 12h42.11.651648 -0500,
¿Recuerda el trayecto que realiza desde su casa hasta el lugar donde realiza sus compras?,13,brown,0,12,12,12,0,6,6,6,40.00414819999969,,,,,,,,,,,,,,,39.956181800000195,40.00414819999969,40.07525750000059,,,,012346,001,2024-04-28_12h41.59.549,ArchivoPrueba,2024.1.1,None,2024-04-28 12h42.11.651648 -0500,
¿Recuerda alguna situación divertida o interesante que haya experimentado durante el recorrido hacia el lugar de compras?,15,purple,0,12,12,12,0,7,7,7,40.111237600000095,,,,,,,,,,,,,,,40.076549200000954,40.111237600000095,40.12786220000089,,,,012346,001,2024-04-28_12h41.59.549,ArchivoPrueba,2024.1.1,None,2024-04-28 12h42.11.651648 -0500,
 ¿Recuerda qué es lo primero que ve al llegar al lugar donde realiza sus compras?,17,green,0,12,12,12,0,8,8,8,40.16031470000053,,,,,,,,,,,,,,,40.12896490000094,40.16031470000053,40.23983600000065,,,,012346,001,2024-04-28_12h41.59.549,ArchivoPrueba,2024.1.1,None,2024-04-28 12h42.11.651648 -0500,
¿Recuerda el recorrido desde su residencia hasta el centro de resonancia magnética?,19,red,0,12,12,12,0,9,9,9,40.27740400000039,,,,,,,,,,,,,,,40.241035799999736,40.27740400000039,40.34213129999989,,,,012346,001,2024-04-28_12h41.59.549,ArchivoPrueba,2024.1.1,None,2024-04-28 12h42.11.651648 -0500,
None,21,white,0,12,12,12,0,10,10,10,40.37894700000106,,,,,,,,,,,,,,,40.34354180000082,40.37894700000106,40.45884930000102,,,,012346,001,2024-04-28_12h41.59.549,ArchivoPrueba,2024.1.1,None,2024-04-28 12h42.11.651648 -0500,
None,23,blue,0,12,12,12,0,11,11,11,40.494380199999796,,,,,,,,,,,,,,,40.46043060000011,40.494380199999796,40.538709700000254,,,,012346,001,2024-04-28_12h41.59.549,ArchivoPrueba,2024.1.1,None,2024-04-28 12h42.11.651648 -0500,
None,25,yellow,0,12,12,12,0,12,12,12,40.576963200001046,,,,,,,,,,,,,,,40.53959639999994,40.576963200001046,40.65551460000097,,,,012346,001,2024-04-28_12h41.59.549,ArchivoPrueba,2024.1.1,None,2024-04-28 12h42.11.651648 -0500,
None,27,orange,0,12,12,12,0,13,13,13,40.693957299999965,,,,,,,,,,,,,,,40.65644690000045,40.693957299999965,40.73834050000005,,,,012346,001,2024-04-28_12h41.59.549,ArchivoPrueba,2024.1.1,None,2024-04-28 12h42.11.651648 -0500,
None,29,brown,0,12,12,12,0,14,14,14,40.776754900000014,,,,,,,,,,,,,,,40.73967480000101,40.776754900000014,40.85493470000074,,,,012346,001,2024-04-28_12h41.59.549,ArchivoPrueba,2024.1.1,None,2024-04-28 12h42.11.651648 -0500,
None,31,purple,0,12,12,12,0,15,15,15,40.89340290000109,,,,,,,,,,,,,,,40.85591829999976,40.89340290000109,40.93878109999969,,,,012346,001,2024-04-28_12h41.59.549,ArchivoPrueba,2024.1.1,None,2024-04-28 12h42.11.651648 -0500,
None,33,green,0,12,12,12,0,16,16,16,40.977329100000134,,,,,,,,,,,,,,,40.94035989999975,40.977329100000134,41.05692579999959,,,,012346,001,2024-04-28_12h41.59.549,ArchivoPrueba,2024.1.1,None,2024-04-28 12h42.11.651648 -0500,
None,35,red,0,12,12,12,0,17,17,17,41.09339759999966,,,,,,,,,,,,,,,41.05810620000011,41.09339759999966,41.15967830000045,,,,012346,001,2024-04-28_12h41.59.549,ArchivoPrueba,2024.1.1,None,2024-04-28 12h42.11.651648 -0500,
None,37,white,0,12,12,12,0,18,18,18,41.19322420000026,,,,,,,,,,,,,,,41.16149210000003,41.19322420000026,41.24026330000015,,,,012346,001,2024-04-28_12h41.59.549,ArchivoPrueba,2024.1.1,None,2024-04-28 12h42.11.651648 -0500,
None,39,blue,0,12,12,12,0,19,19,19,41.27639360000103,,,,,,,,,,,,,,,41.24128159999964,41.27639360000103,41.35475620000034,,,,012346,001,2024-04-28_12h41.59.549,ArchivoPrueba,2024.1.1,None,2024-04-28 12h42.11.651648 -0500,
None,25,yellow,0,12,12,12,,,,,,,,,,,,,,,,,,,,,,,,,,012346,001,2024-04-28_12h41.59.549,ArchivoPrueba,2024.1.1,None,2024-04-28 12h42.11.651648 -0500,
¿Recuerda el recorrido que realiza desde su cama hasta la cocina de su residencia?,1,green,0,13,13,13,0,0,0,0,42.42522110000027,,,,,,,,,,,,41.355847599999834,41.39333009999973,42.355445999999574,42.38998040000115,42.42522110000027,42.43926070000089,,,,012346,001,2024-04-28_12h41.59.549,ArchivoPrueba,2024.1.1,None,2024-04-28 12h42.11.651648 -0500,
¿Recuerda el trayecto que hace desde su casa hasta su lugar de trabajo?,3,red,0,13,13,13,0,1,1,1,42.47534570000062,,,,,,,,,,,,,,,42.44032909999987,42.47534570000062,42.55337990000044,,,,012346,001,2024-04-28_12h41.59.549,ArchivoPrueba,2024.1.1,None,2024-04-28 12h42.11.651648 -0500,
¿Recuerda  algún inconveniente que ha  experimentado en el camino de su residencia a su lugar de trabajo?,5,white,0,13,13,13,0,2,2,2,42.59186430000045,,,,,,,,,,,,,,,42.55490420000024,42.59186430000045,42.638972300001114,,,,012346,001,2024-04-28_12h41.59.549,ArchivoPrueba,2024.1.1,None,2024-04-28 12h42.11.651648 -0500,
¿Recuerda si hay algún lugar u objeto en su camino hacia el trabajo que le llame la atención?,7,blue,0,13,13,13,0,3,3,3,42.67535029999999,,,,,,,,,,,,,,,42.640038400000776,42.67535029999999,42.755903700001,,,,012346,001,2024-04-28_12h41.59.549,ArchivoPrueba,2024.1.1,None,2024-04-28 12h42.11.651648 -0500,
" ¿Recuerda el recorrido desde la entrada de su lugar de trabajo hasta su oficina, donde realiza sus funciones?",9,yellow,0,13,13,13,0,4,4,4,42.791766800000914,,,,,,,,,,,,,,,42.75720940000065,42.791766800000914,42.83618209999986,,,,012346,001,2024-04-28_12h41.59.549,ArchivoPrueba,2024.1.1,None,2024-04-28 12h42.11.651648 -0500,
¿Recuerda alguna actividad que realice durante los viajes de regreso a casa desde el trabajo para relajarse?,11,orange,0,13,13,13,0,5,5,5,42.87494230000084,,,,,,,,,,,,,,,42.837272400000074,42.87494230000084,42.9530491000005,,,,012346,001,2024-04-28_12h41.59.549,ArchivoPrueba,2024.1.1,None,2024-04-28 12h42.11.651648 -0500,
¿Recuerda el trayecto que realiza desde su casa hasta el lugar donde realiza sus compras?,13,brown,0,13,13,13,0,6,6,6,42.99162410000099,,,,,,,,,,,,,,,42.9540104000007,42.99162410000099,43.03616499999953,,,,012346,001,2024-04-28_12h41.59.549,ArchivoPrueba,2024.1.1,None,2024-04-28 12h42.11.651648 -0500,
¿Recuerda alguna situación divertida o interesante que haya experimentado durante el recorrido hacia el lugar de compras?,15,purple,0,13,13,13,0,7,7,7,43.07476740000129,,,,,,,,,,,,,,,43.03785620000053,43.07476740000129,43.13287880000098,,,,012346,001,2024-04-28_12h41.59.549,ArchivoPrueba,2024.1.1,None,2024-04-28 12h42.11.651648 -0500,
 ¿Recuerda qué es lo primero que ve al llegar al lugar donde realiza sus compras?,17,green,0,13,13,13,0,8,8,8,43.17458380000062,,,,,,,,,,,,,,,43.13392700000077,43.17458380000062,43.25895190000119,,,,012346,001,2024-04-28_12h41.59.549,ArchivoPrueba,2024.1.1,None,2024-04-28 12h42.11.651648 -0500,
¿Recuerda el recorrido desde su residencia hasta el centro de resonancia magnética?,19,red,0,13,13,13,0,9,9,9,43.29185610000059,,,,,,,,,,,,,,,43.26124540000092,43.29185610000059,43.3404229000007,,,,012346,001,2024-04-28_12h41.59.549,ArchivoPrueba,2024.1.1,None,2024-04-28 12h42.11.651648 -0500,
None,21,white,0,13,13,13,0,10,10,10,43.37459930000114,,,,,,,,,,,,,,,43.34162330000072,43.37459930000114,43.457393700000466,,,,012346,001,2024-04-28_12h41.59.549,ArchivoPrueba,2024.1.1,None,2024-04-28 12h42.11.651648 -0500,
None,23,blue,0,13,13,13,0,11,11,11,43.49156440000115,,,,,,,,,,,,,,,43.459359000000404,43.49156440000115,43.53747350000049,,,,012346,001,2024-04-28_12h41.59.549,ArchivoPrueba,2024.1.1,None,2024-04-28 12h42.11.651648 -0500,
None,25,yellow,0,13,13,13,0,12,12,12,43.57438480000019,,,,,,,,,,,,,,,43.53849740000078,43.57438480000019,43.65743020000082,,,,012346,001,2024-04-28_12h41.59.549,ArchivoPrueba,2024.1.1,None,2024-04-28 12h42.11.651648 -0500,
None,27,orange,0,13,13,13,0,13,13,13,43.69117759999972,,,,,,,,,,,,,,,43.65907960000004,43.69117759999972,43.73976240000047,,,,012346,001,2024-04-28_12h41.59.549,ArchivoPrueba,2024.1.1,None,2024-04-28 12h42.11.651648 -0500,
None,29,brown,0,13,13,13,0,14,14,14,43.77457830000094,,,,,,,,,,,,,,,43.74081640000077,43.77457830000094,43.85679390000041,,,,012346,001,2024-04-28_12h41.59.549,ArchivoPrueba,2024.1.1,None,2024-04-28 12h42.11.651648 -0500,
None,31,purple,0,13,13,13,0,15,15,15,43.89073280000048,,,,,,,,,,,,,,,43.85845580000023,43.89073280000048,43.94016730000112,,,,012346,001,2024-04-28_12h41.59.549,ArchivoPrueba,2024.1.1,None,2024-04-28 12h42.11.651648 -0500,
None,33,green,0,13,13,13,0,16,16,16,43.97446789999958,,,,,,,,,,,,,,,43.94237659999999,43.97446789999958,44.055795899999794,,,,012346,001,2024-04-28_12h41.59.549,ArchivoPrueba,2024.1.1,None,2024-04-28 12h42.11.651648 -0500,
None,35,red,0,13,13,13,0,17,17,17,44.09136820000094,,,,,,,,,,,,,,,44.057987300000605,44.09136820000094,44.15652890000092,,,,012346,001,2024-04-28_12h41.59.549,ArchivoPrueba,2024.1.1,None,2024-04-28 12h42.11.651648 -0500,
None,37,white,0,13,13,13,0,18,18,18,44.19075890000022,,,,,,,,,,,,,,,44.15854700000091,44.19075890000022,44.238927700000204,,,,012346,001,2024-04-28_12h41.59.549,ArchivoPrueba,2024.1.1,None,2024-04-28 12h42.11.651648 -0500,
None,39,blue,0,13,13,13,0,19,19,19,44.27410229999987,,,,,,,,,,,,,,,44.240634100000534,44.27410229999987,44.355283200000486,,,,012346,001,2024-04-28_12h41.59.549,ArchivoPrueba,2024.1.1,None,2024-04-28 12h42.11.651648 -0500,
None,27,orange,0,13,13,13,,,,,,,,,,,,,,,,,,,,,,,,,,012346,001,2024-04-28_12h41.59.549,ArchivoPrueba,2024.1.1,None,2024-04-28 12h42.11.651648 -0500,
¿Recuerda el recorrido que realiza desde su cama hasta la cocina de su residencia?,1,green,0,14,14,14,0,0,0,0,45.4232178000002,,,,,,,,,,,,44.3572879000003,44.4073939000009,45.34515050000118,45.39023500000076,45.4232178000002,45.44275580000067,,,,012346,001,2024-04-28_12h41.59.549,ArchivoPrueba,2024.1.1,None,2024-04-28 12h42.11.651648 -0500,
¿Recuerda el trayecto que hace desde su casa hasta su lugar de trabajo?,3,red,0,14,14,14,0,1,1,1,45.475807099999656,,,,,,,,,,,,,,,45.444258499999705,45.475807099999656,45.539969700001166,,,,012346,001,2024-04-28_12h41.59.549,ArchivoPrueba,2024.1.1,None,2024-04-28 12h42.11.651648 -0500,
¿Recuerda  algún inconveniente que ha  experimentado en el camino de su residencia a su lugar de trabajo?,5,white,0,14,14,14,0,2,2,2,45.57392700000128,,,,,,,,,,,,,,,45.541243400000894,45.57392700000128,45.64485869999953,,,,012346,001,2024-04-28_12h41.59.549,ArchivoPrueba,2024.1.1,None,2024-04-28 12h42.11.651648 -0500,
¿Recuerda si hay algún lugar u objeto en su camino hacia el trabajo que le llame la atención?,7,blue,0,14,14,14,0,3,3,3,45.67316680000113,,,,,,,,,,,,,,,45.64617040000121,45.67316680000113,45.740299299999606,,,,012346,001,2024-04-28_12h41.59.549,ArchivoPrueba,2024.1.1,None,2024-04-28 12h42.11.651648 -0500,
" ¿Recuerda el recorrido desde la entrada de su lugar de trabajo hasta su oficina, donde realiza sus funciones?",9,yellow,0,14,14,14,0,4,4,4,45.789345799999865,,,,,,,,,,,,,,,45.742350100001204,45.789345799999865,45.860285400000066,,,,012346,001,2024-04-28_12h41.59.549,ArchivoPrueba,2024.1.1,None,2024-04-28 12h42.11.651648 -0500,
¿Recuerda alguna actividad que realice durante los viajes de regreso a casa desde el trabajo para relajarse?,11,orange,0,14,14,14,0,5,5,5,45.890455900000234,,,,,,,,,,,,,,,45.861657900000864,45.890455900000234,45.95793220000087,,,,012346,001,2024-04-28_12h41.59.549,ArchivoPrueba,2024.1.1,None,2024-04-28 12h42.11.651648 -0500,
¿Recuerda el trayecto que realiza desde su casa hasta el lugar donde realiza sus compras?,13,brown,0,14,14,14,0,6,6,6,45.989821299999676,,,,,,,,,,,,,,,45.959682599999724,45.989821299999676,46.07283160000043,,,,012346,001,2024-04-28_12h41.59.549,ArchivoPrueba,2024.1.1,None,2024-04-28 12h42.11.651648 -0500,
¿Recuerda alguna situación divertida o interesante que haya experimentado durante el recorrido hacia el lugar de compras?,15,purple,0,14,14,14,0,7,7,7,46.123648500000854,,,,,,,,,,,,,,,46.07412590000058,46.123648500000854,46.1490775000002,,,,012346,001,2024-04-28_12h41.59.549,ArchivoPrueba,2024.1.1,None,2024-04-28 12h42.11.651648 -0500,
 ¿Recuerda qué es lo primero que ve al llegar al lugar donde realiza sus compras?,17,green,0,14,14,14,0,8,8,8,46.1892839000011,,,,,,,,,,,,,,,46.15076539999973,46.1892839000011,46.254425200000696,,,,012346,001,2024-04-28_12h41.59.549,ArchivoPrueba,2024.1.1,None,2024-04-28 12h42.11.651648 -0500,
¿Recuerda el recorrido desde su residencia hasta el centro de resonancia magnética?,19,red,0,14,14,14,0,9,9,9,46.30555869999989,,,,,,,,,,,,,,,46.2564997999998,46.30555869999989,46.37175759999991,,,,012346,001,2024-04-28_12h41.59.549,ArchivoPrueba,2024.1.1,None,2024-04-28 12h42.11.651648 -0500,
None,21,white,0,14,14,14,0,10,10,10,46.406667299999754,,,,,,,,,,,,,,,46.37299329999951,46.406667299999754,46.42951549999998,,,,012346,001,2024-04-28_12h41.59.549,ArchivoPrueba,2024.1.1,None,2024-04-28 12h42.11.651648 -0500,
None,23,blue,0,14,14,14,0,11,11,11,46.47251529999994,,,,,,,,,,,,,,,46.43103020000126,46.47251529999994,46.53778600000078,,,,012346,001,2024-04-28_12h41.59.549,ArchivoPrueba,2024.1.1,None,2024-04-28 12h42.11.651648 -0500,
None,25,yellow,0,14,14,14,0,12,12,12,46.573833899999954,,,,,,,,,,,,,,,46.53902990000097,46.573833899999954,46.64384600000085,,,,012346,001,2024-04-28_12h41.59.549,ArchivoPrueba,2024.1.1,None,2024-04-28 12h42.11.651648 -0500,
None,27,orange,0,14,14,14,0,13,13,13,46.68903540000065,,,,,,,,,,,,,,,46.64577050000116,46.68903540000065,46.75972250000086,,,,012346,001,2024-04-28_12h41.59.549,ArchivoPrueba,2024.1.1,None,2024-04-28 12h42.11.651648 -0500,
None,29,brown,0,14,14,14,0,14,14,14,46.805599499999516,,,,,,,,,,,,,,,46.761001700000634,46.805599499999516,46.827573100001246,,,,012346,001,2024-04-28_12h41.59.549,ArchivoPrueba,2024.1.1,None,2024-04-28 12h42.11.651648 -0500,
None,31,purple,0,14,14,14,0,15,15,15,46.87186719999954,,,,,,,,,,,,,,,46.82912820000092,46.87186719999954,46.946866399999635,,,,012346,001,2024-04-28_12h41.59.549,ArchivoPrueba,2024.1.1,None,2024-04-28 12h42.11.651648 -0500,
None,33,green,0,14,14,14,0,16,16,16,46.98869610000111,,,,,,,,,,,,,,,46.94831040000099,46.98869610000111,47.071495800000775,,,,012346,001,2024-04-28_12h41.59.549,ArchivoPrueba,2024.1.1,None,2024-04-28 12h42.11.651648 -0500,
None,35,red,0,14,14,14,0,17,17,17,47.17951230000108,,,,,,,,,,,,,,,47.073752100001,47.17951230000108,47.1967053999997,,,,012346,001,2024-04-28_12h41.59.549,ArchivoPrueba,2024.1.1,None,2024-04-28 12h42.11.651648 -0500,
None,37,white,0,14,14,14,0,18,18,18,47.22490520000065,,,,,,,,,,,,,,,47.197180000001026,47.22490520000065,47.2625508000001,,,,012346,001,2024-04-28_12h41.59.549,ArchivoPrueba,2024.1.1,None,2024-04-28 12h42.11.651648 -0500,
None,39,blue,0,14,14,14,0,19,19,19,47.322417600000335,,,,,,,,,,,,,,,47.26462270000047,47.322417600000335,47.33612940000057,,,,012346,001,2024-04-28_12h41.59.549,ArchivoPrueba,2024.1.1,None,2024-04-28 12h42.11.651648 -0500,
None,29,brown,0,14,14,14,,,,,,,,,,,,,,,,,,,,,,,,,,012346,001,2024-04-28_12h41.59.549,ArchivoPrueba,2024.1.1,None,2024-04-28 12h42.11.651648 -0500,
¿Recuerda el recorrido que realiza desde su cama hasta la cocina de su residencia?,1,green,0,15,15,15,0,0,0,0,48.42080580000038,,,,,,,,,,,,47.33844169999975,47.37075460000051,48.341418500000145,48.38488730000063,48.42080580000038,48.45457429999988,,,,012346,001,2024-04-28_12h41.59.549,ArchivoPrueba,2024.1.1,None,2024-04-28 12h42.11.651648 -0500,
¿Recuerda el trayecto que hace desde su casa hasta su lugar de trabajo?,3,red,0,15,15,15,0,1,1,1,48.50388000000021,,,,,,,,,,,,,,,48.45645920000061,48.50388000000021,48.5558731000001,,,,012346,001,2024-04-28_12h41.59.549,ArchivoPrueba,2024.1.1,None,2024-04-28 12h42.11.651648 -0500,
¿Recuerda  algún inconveniente que ha  experimentado en el camino de su residencia a su lugar de trabajo?,5,white,0,15,15,15,0,2,2,2,48.60386269999981,,,,,,,,,,,,,,,48.55712510000012,48.60386269999981,48.67688749999979,,,,012346,001,2024-04-28_12h41.59.549,ArchivoPrueba,2024.1.1,None,2024-04-28 12h42.11.651648 -0500,
¿Recuerda si hay algún lugar u objeto en su camino hacia el trabajo que le llame la atención?,7,blue,0,15,15,15,0,3,3,3,48.72074690000045,,,,,,,,,,,,,,,48.678532500000074,48.72074690000045,48.74145510000017,,,,012346,001,2024-04-28_12h41.59.549,ArchivoPrueba,2024.1.1,None,2024-04-28 12h42.11.651648 -0500,
" ¿Recuerda el recorrido desde la entrada de su lugar de trabajo hasta su oficina, donde realiza sus funciones?",9,yellow,0,15,15,15,0,4,4,4,48.77047440000024,,,,,,,,,,,,,,,48.7426403999998,48.77047440000024,48.845143200000166,,,,012346,001,2024-04-28_12h41.59.549,ArchivoPrueba,2024.1.1,None,2024-04-28 12h42.11.651648 -0500,
¿Recuerda alguna actividad que realice durante los viajes de regreso a casa desde el trabajo para relajarse?,11,orange,0,15,15,15,0,5,5,5,48.887159600000814,,,,,,,,,,,,,,,48.8470526000001,48.887159600000814,48.95605290000094,,,,012346,001,2024-04-28_12h41.59.549,ArchivoPrueba,2024.1.1,None,2024-04-28 12h42.11.651648 -0500,
¿Recuerda el trayecto que realiza desde su casa hasta el lugar donde realiza sus compras?,13,brown,0,15,15,15,0,6,6,6,48.98724519999996,,,,,,,,,,,,,,,48.95749660000001,48.98724519999996,49.05609279999953,,,,012346,001,2024-04-28_12h41.59.549,ArchivoPrueba,2024.1.1,None,2024-04-28 12h42.11.651648 -0500,
¿Recuerda alguna situación divertida o interesante que haya experimentado durante el recorrido hacia el lugar de compras?,15,purple,0,15,15,15,0,7,7,7,49.087487599999804,,,,,,,,,,,,,,,49.057426600000326,49.087487599999804,49.172985600000175,,,,012346,001,2024-04-28_12h41.59.549,ArchivoPrueba,2024.1.1,None,2024-04-28 12h42.11.651648 -0500,
 ¿Recuerda qué es lo primero que ve al llegar al lugar donde realiza sus compras?,17,green,0,15,15,15,0,8,8,8,49.20349879999958,,,,,,,,,,,,,,,49.17433940000046,49.20349879999958,49.273214000000735,,,,012346,001,2024-04-28_12h41.59.549,ArchivoPrueba,2024.1.1,None,2024-04-28 12h42.11.651648 -0500,
¿Recuerda el recorrido desde su residencia hasta el centro de resonancia magnética?,19,red,0,15,15,15,0,9,9,9,49.31952889999957,,,,,,,,,,,,,,,49.27441540000109,49.31952889999957,49.33940950000033,,,,012346,001,2024-04-28_12h41.59.549,ArchivoPrueba,2024.1.1,None,2024-04-28 12h42.11.651648 -0500,
None,21,white,0,15,15,15,0,10,10,10,49.37059910000062,,,,,,,,,,,,,,,49.340800100000706,49.37059910000062,49.439164400000664,,,,012346,001,2024-04-28_12h41.59.549,ArchivoPrueba,2024.1.1,None,2024-04-28 12h42.11.651648 -0500,
None,23,blue,0,15,15,15,0,11,11,11,49.47013379999953,,,,,,,,,,,,,,,49.44061909999982,49.47013379999953,49.55468970000038,,,,012346,001,2024-04-28_12h41.59.549,ArchivoPrueba,2024.1.1,None,2024-04-28 12h42.11.651648 -0500,
None,25,yellow,0,15,15,15,0,12,12,12,49.60317440000108,,,,,,,,,,,,,,,49.55603920000067,49.60317440000108,49.67457800000011,,,,012346,001,2024-04-28_12h41.59.549,ArchivoPrueba,2024.1.1,None,2024-04-28 12h42.11.651648 -0500,
None,27,orange,0,15,15,15,0,13,13,13,49.7198255000003,,,,,,,,,,,,,,,49.67617910000081,49.7198255000003,49.74025380000057,,,,012346,001,2024-04-28_12h41.59.549,ArchivoPrueba,2024.1.1,None,2024-04-28 12h42.11.651648 -0500,
None,29,brown,0,15,15,15,0,14,14,14,49.770233900000676,,,,,,,,,,,,,,,49.74156620000031,49.770233900000676,49.83950250000089,,,,012346,001,2024-04-28_12h41.59.549,ArchivoPrueba,2024.1.1,None,2024-04-28 12h42.11.651648 -0500,
None,31,purple,0,15,15,15,0,15,15,15,49.86985129999994,,,,,,,,,,,,,,,49.84090240000114,49.86985129999994,49.941465800000515,,,,012346,001,2024-04-28_12h41.59.549,ArchivoPrueba,2024.1.1,None,2024-04-28 12h42.11.651648 -0500,
None,33,green,0,15,15,15,0,16,16,16,49.9865647000006,,,,,,,,,,,,,,,49.94297759999972,49.9865647000006,50.055729200001224,,,,012346,001,2024-04-28_12h41.59.549,ArchivoPrueba,2024.1.1,None,2024-04-28 12h42.11.651648 -0500,
None,35,red,0,15,15,15,0,17,17,17,50.10378040000069,,,,,,,,,,,,,,,50.057030800000575,50.10378040000069,50.13607700000102,,,,012346,001,2024-04-28_12h41.59.549,ArchivoPrueba,2024.1.1,None,2024-04-28 12h42.11.651648 -0500,
None,37,white,0,15,15,15,0,18,18,18,50.169494900001155,,,,,,,,,,,,,,,50.13792509999985,50.169494900001155,50.23523720000048,,,,012346,001,2024-04-28_12h41.59.549,ArchivoPrueba,2024.1.1,None,2024-04-28 12h42.11.651648 -0500,
None,39,blue,0,15,15,15,0,19,19,19,50.26987689999987,,,,,,,,,,,,,,,50.23673299999973,50.26987689999987,50.333360900000116,,,,012346,001,2024-04-28_12h41.59.549,ArchivoPrueba,2024.1.1,None,2024-04-28 12h42.11.651648 -0500,
None,31,purple,0,15,15,15,,,,,,,,,,,,,,,,,,,,,,,,,,012346,001,2024-04-28_12h41.59.549,ArchivoPrueba,2024.1.1,None,2024-04-28 12h42.11.651648 -0500,
¿Recuerda el recorrido que realiza desde su cama hasta la cocina de su residencia?,1,green,0,16,16,16,0,0,0,0,51.501120300001276,,,,,,,,,,,,50.334800200000245,50.385401499999716,51.37892400000055,51.450458100000105,,51.45870939999986,,,,012346,001,2024-04-28_12h41.59.549,ArchivoPrueba,2024.1.1,None,2024-04-28 12h42.11.651648 -0500,
¿Recuerda el trayecto que hace desde su casa hasta su lugar de trabajo?,3,red,0,16,16,16,0,1,1,1,51.501120300001276,,,,,,,,,,,,,,,51.459821100001136,51.501120300001276,51.57894920000035,,,,012346,001,2024-04-28_12h41.59.549,ArchivoPrueba,2024.1.1,None,2024-04-28 12h42.11.651648 -0500,
¿Recuerda  algún inconveniente que ha  experimentado en el camino de su residencia a su lugar de trabajo?,5,white,0,16,16,16,0,2,2,2,51.63950509999995,,,,,,,,,,,,,,,51.582575700000234,51.63950509999995,51.68153080000047,,,,012346,001,2024-04-28_12h41.59.549,ArchivoPrueba,2024.1.1,None,2024-04-28 12h42.11.651648 -0500,
¿Recuerda si hay algún lugar u objeto en su camino hacia el trabajo que le llame la atención?,7,blue,0,16,16,16,0,3,3,3,51.718253000000914,,,,,,,,,,,,,,,51.68555379999998,51.718253000000914,51.72784800000045,,,,012346,001,2024-04-28_12h41.59.549,ArchivoPrueba,2024.1.1,None,2024-04-28 12h42.11.651648 -0500,
" ¿Recuerda el recorrido desde la entrada de su lugar de trabajo hasta su oficina, donde realiza sus funciones?",9,yellow,0,16,16,16,0,4,4,4,51.75091070000053,,,,,,,,,,,,,,,51.728589100001045,51.75091070000053,51.860280599999896,,,,012346,001,2024-04-28_12h41.59.549,ArchivoPrueba,2024.1.1,None,2024-04-28 12h42.11.651648 -0500,
¿Recuerda alguna actividad que realice durante los viajes de regreso a casa desde el trabajo para relajarse?,11,orange,0,16,16,16,0,5,5,5,51.90135980000014,,,,,,,,,,,,,,,51.86290510000072,51.90135980000014,51.973950100000366,,,,012346,001,2024-04-28_12h41.59.549,ArchivoPrueba,2024.1.1,None,2024-04-28 12h42.11.651648 -0500,
¿Recuerda el trayecto que realiza desde su casa hasta el lugar donde realiza sus compras?,13,brown,0,16,16,16,0,6,6,6,52.01829519999956,,,,,,,,,,,,,,,51.97554570000102,52.01829519999956,52.03841269999975,,,,012346,001,2024-04-28_12h41.59.549,ArchivoPrueba,2024.1.1,None,2024-04-28 12h42.11.651648 -0500,
¿Recuerda alguna situación divertida o interesante que haya experimentado durante el recorrido hacia el lugar de compras?,15,purple,0,16,16,16,0,7,7,7,52.084931499999584,,,,,,,,,,,,,,,52.039826600001106,52.084931499999584,52.19054909999977,,,,012346,001,2024-04-28_12h41.59.549,ArchivoPrueba,2024.1.1,None,2024-04-28 12h42.11.651648 -0500,
 ¿Recuerda qué es lo primero que ve al llegar al lugar donde realiza sus compras?,17,green,0,16,16,16,0,8,8,8,52.21591790000093,,,,,,,,,,,,,,,52.19282860000021,52.21591790000093,52.229727699999785,,,,012346,001,2024-04-28_12h41.59.549,ArchivoPrueba,2024.1.1,None,2024-04-28 12h42.11.651648 -0500,
¿Recuerda el recorrido desde su residencia hasta el centro de resonancia magnética?,19,red,0,16,16,16,0,9,9,9,52.25477429999955,,,,,,,,,,,,,,,52.230591900000945,52.25477429999955,52.35223510000105,,,,012346,001,2024-04-28_12h41.59.549,ArchivoPrueba,2024.1.1,None,2024-04-28 12h42.11.651648 -0500,
None,21,white,0,16,16,16,0,10,10,10,52.42281440000079,,,,,,,,,,,,,,,52.35451099999955,52.42281440000079,52.45057520000046,,,,012346,001,2024-04-28_12h41.59.549,ArchivoPrueba,2024.1.1,None,2024-04-28 12h42.11.651648 -0500,
None,23,blue,0,16,16,16,0,11,11,11,52.50022259999969,,,,,,,,,,,,,,,52.45222670000112,52.50022259999969,52.560120399999505,,,,012346,001,2024-04-28_12h41.59.549,ArchivoPrueba,2024.1.1,None,2024-04-28 12h42.11.651648 -0500,
None,25,yellow,0,16,16,16,0,12,12,12,52.60056170000098,,,,,,,,,,,,,,,52.56161930000053,52.60056170000098,52.62867089999963,,,,012346,001,2024-04-28_12h41.59.549,ArchivoPrueba,2024.1.1,None,2024-04-28 12h42.11.651648 -0500,
None,27,orange,0,16,16,16,0,13,13,13,52.66690019999987,,,,,,,,,,,,,,,52.63031249999949,52.66690019999987,52.737629400000515,,,,012346,001,2024-04-28_12h41.59.549,ArchivoPrueba,2024.1.1,None,2024-04-28 12h42.11.651648 -0500,
None,29,brown,0,16,16,16,0,14,14,14,52.76707600000009,,,,,,,,,,,,,,,52.739016400000764,52.76707600000009,52.868316300000515,,,,012346,001,2024-04-28_12h41.59.549,ArchivoPrueba,2024.1.1,None,2024-04-28 12h42.11.651648 -0500,
None,31,purple,0,16,16,16,0,15,15,15,52.916945700000724,,,,,,,,,,,,,,,52.87114839999958,52.916945700000724,52.93847800000003,,,,012346,001,2024-04-28_12h41.59.549,ArchivoPrueba,2024.1.1,None,2024-04-28 12h42.11.651648 -0500,
None,33,green,0,16,16,16,0,16,16,16,52.98344300000099,,,,,,,,,,,,,,,52.93981739999981,52.98344300000099,53.088904000000184,,,,012346,001,2024-04-28_12h41.59.549,ArchivoPrueba,2024.1.1,None,2024-04-28 12h42.11.651648 -0500,
None,35,red,0,16,16,16,0,17,17,17,53.18339870000091,,,,,,,,,,,,,,,53.091702600000644,,53.12776230000054,,,,012346,001,2024-04-28_12h41.59.549,ArchivoPrueba,2024.1.1,None,2024-04-28 12h42.11.651648 -0500,
None,37,white,0,16,16,16,0,18,18,18,53.18339870000091,,,,,,,,,,,,,,,53.13003600000047,53.18339870000091,53.25394410000081,,,,012346,001,2024-04-28_12h41.59.549,ArchivoPrueba,2024.1.1,None,2024-04-28 12h42.11.651648 -0500,
None,39,blue,0,16,16,16,0,19,19,19,53.30225820000123,,,,,,,,,,,,,,,53.25685599999997,53.30225820000123,53.327129799999966,,,,012346,001,2024-04-28_12h41.59.549,ArchivoPrueba,2024.1.1,None,2024-04-28 12h42.11.651648 -0500,
None,33,green,0,16,16,16,,,,,,,,,,,,,,,,,,,,,,,,,,012346,001,2024-04-28_12h41.59.549,ArchivoPrueba,2024.1.1,None,2024-04-28 12h42.11.651648 -0500,
¿Recuerda el recorrido que realiza desde su cama hasta la cocina de su residencia?,1,green,0,17,17,17,0,0,0,0,54.398884800000815,,,,,,,,,,,,53.3303735999998,53.40758160000041,54.33080979999977,54.372054299999945,54.398884800000815,54.44392330000119,,,,012346,001,2024-04-28_12h41.59.549,ArchivoPrueba,2024.1.1,None,2024-04-28 12h42.11.651648 -0500,
¿Recuerda el trayecto que hace desde su casa hasta su lugar de trabajo?,3,red,0,17,17,17,0,1,1,1,54.48150370000076,,,,,,,,,,,,,,,54.44529450000118,54.48150370000076,54.528805300000386,,,,012346,001,2024-04-28_12h41.59.549,ArchivoPrueba,2024.1.1,None,2024-04-28 12h42.11.651648 -0500,
¿Recuerda  algún inconveniente que ha  experimentado en el camino de su residencia a su lugar de trabajo?,5,white,0,17,17,17,0,2,2,2,54.56472600000052,,,,,,,,,,,,,,,54.5302716999995,54.56472600000052,54.64568800000052,,,,012346,001,2024-04-28_12h41.59.549,ArchivoPrueba,2024.1.1,None,2024-04-28 12h42.11.651648 -0500,
¿Recuerda si hay algún lugar u objeto en su camino hacia el trabajo que le llame la atención?,7,blue,0,17,17,17,0,3,3,3,54.68133260000104,,,,,,,,,,,,,,,54.6466376999997,54.68133260000104,54.72822140000062,,,,012346,001,2024-04-28_12h41.59.549,ArchivoPrueba,2024.1.1,None,2024-04-28 12h42.11.651648 -0500,
" ¿Recuerda el recorrido desde la entrada de su lugar de trabajo hasta su oficina, donde realiza sus funciones?",9,yellow,0,17,17,17,0,4,4,4,54.76503910000065,,,,,,,,,,,,,,,54.7295094000001,54.76503910000065,54.832538900000145,,,,012346,001,2024-04-28_12h41.59.549,ArchivoPrueba,2024.1.1,None,2024-04-28 12h42.11.651648 -0500,
¿Recuerda alguna actividad que realice durante los viajes de regreso a casa desde el trabajo para relajarse?,11,orange,0,17,17,17,0,5,5,5,54.86497960000088,,,,,,,,,,,,,,,54.83370830000058,54.86497960000088,54.94680890000018,,,,012346,001,2024-04-28_12h41.59.549,ArchivoPrueba,2024.1.1,None,2024-04-28 12h42.11.651648 -0500,
¿Recuerda el trayecto que realiza desde su casa hasta el lugar donde realiza sus compras?,13,brown,0,17,17,17,0,6,6,6,54.98110760000054,,,,,,,,,,,,,,,54.94849919999979,54.98110760000054,55.02801290000025,,,,012346,001,2024-04-28_12h41.59.549,ArchivoPrueba,2024.1.1,None,2024-04-28 12h42.11.651648 -0500,
¿Recuerda alguna situación divertida o interesante que haya experimentado durante el recorrido hacia el lugar de compras?,15,purple,0,17,17,17,0,7,7,7,55.064738600000055,,,,,,,,,,,,,,,55.02980200000093,55.064738600000055,55.1613997000004,,,,012346,001,2024-04-28_12h41.59.549,ArchivoPrueba,2024.1.1,None,2024-04-28 12h42.11.651648 -0500,
 ¿Recuerda qué es lo primero que ve al llegar al lugar donde realiza sus compras?,17,green,0,17,17,17,0,8,8,8,55.19816870000068,,,,,,,,,,,,,,,55.16282130000036,55.19816870000068,55.24964709999949,,,,012346,001,2024-04-28_12h41.59.549,ArchivoPrueba,2024.1.1,None,2024-04-28 12h42.11.651648 -0500,
¿Recuerda el recorrido desde su residencia hasta el centro de resonancia magnética?,19,red,0,17,17,17,0,9,9,9,55.281208600001264,,,,,,,,,,,,,,,55.25111370000013,55.281208600001264,55.33194809999986,,,,012346,001,2024-04-28_12h41.59.549,ArchivoPrueba,2024.1.1,None,2024-04-28 12h42.11.651648 -0500,
None,21,white,0,17,17,17,0,10,10,10,55.364485400001286,,,,,,,,,,,,,,,55.33368410000003,55.364485400001286,55.44527670000025,,,,012346,001,2024-04-28_12h41.59.549,ArchivoPrueba,2024.1.1,None,2024-04-28 12h42.11.651648 -0500,
None,23,blue,0,17,17,17,0,11,11,11,55.480809800001225,,,,,,,,,,,,,,,55.44631540000046,55.480809800001225,55.53280620000078,,,,012346,001,2024-04-28_12h41.59.549,ArchivoPrueba,2024.1.1,None,2024-04-28 12h42.11.651648 -0500,
None,25,yellow,0,17,17,17,0,12,12,12,55.56513520000044,,,,,,,,,,,,,,,55.534043499999825,55.56513520000044,55.630248200001006,,,,012346,001,2024-04-28_12h41.59.549,ArchivoPrueba,2024.1.1,None,2024-04-28 12h42.11.651648 -0500,
None,27,orange,0,17,17,17,0,13,13,13,55.66406319999987,,,,,,,,,,,,,,,55.63280889999987,55.66406319999987,55.74654569999984,,,,012346,001,2024-04-28_12h41.59.549,ArchivoPrueba,2024.1.1,None,2024-04-28 12h42.11.651648 -0500,
None,29,brown,0,17,17,17,0,14,14,14,55.78060550000009,,,,,,,,,,,,,,,55.74876800000129,55.78060550000009,55.82825100000082,,,,012346,001,2024-04-28_12h41.59.549,ArchivoPrueba,2024.1.1,None,2024-04-28 12h42.11.651648 -0500,
None,31,purple,0,17,17,17,0,15,15,15,55.86413100000027,,,,,,,,,,,,,,,55.829538400001184,55.86413100000027,55.93309510000108,,,,012346,001,2024-04-28_12h41.59.549,ArchivoPrueba,2024.1.1,None,2024-04-28 12h42.11.651648 -0500,
None,33,green,0,17,17,17,0,16,16,16,55.96371429999999,,,,,,,,,,,,,,,55.93463470000097,55.96371429999999,56.050785800000085,,,,012346,001,2024-04-28_12h41.59.549,ArchivoPrueba,2024.1.1,None,2024-04-28 12h42.11.651648 -0500,
