PreguntaOff,PreguntaOn,Colors,Prueba.thisRepN,Prueba.thisTrialN,Prueba.thisN,Prueba.thisIndex,RepeticionOn.thisRepN,RepeticionOn.thisTrialN,RepeticionOn.thisN,RepeticionOn.thisIndex,thisRow.t,notes,introducción_3.started,introducción.started,mouse.started,introducción_3.stopped,mouse.x,mouse.y,mouse.leftButton,mouse.midButton,mouse.rightButton,mouse.time,Off.started,CondicionOff.started,Off.stopped,On.started,CondicionOn.started,On.stopped,participant,session,date,expName,psychopyVersion,frameRate,expStart,
,,,,,,,,,,,,,0.041563000000678585,0.0627041999996436,0.04111689999990631,13.705590199999278,[-0.3893229166666667],[-0.1796875],[1],[0],[0],[13.652694399999746],,,,,,,024780,001,2024-04-28_13h53.14.781,ArchivoPrueba,2024.1.1,None,2024-04-28 13h53.28.526944 -0500,
¿Recuerda el recorrido que realiza desde su cama hasta la cocina de su residencia?,1,green,0,0,0,0,0,0,0,0,33.786409500000445,,,,,,,,,,,,13.761675100000502,13.820780000000013,33.726388600000064,33.74824520000038,33.786409500000445,34.733246300000246,024780,001,2024-04-28_13h53.14.781,ArchivoPrueba,2024.1.1,None,2024-04-28 13h53.28.526944 -0500,
¿Recuerda el trayecto que hace desde su casa hasta su lugar de trabajo?,3,red,0,0,0,0,0,1,1,1,34.76618699999926,,,,,,,,,,,,,,,34.73420799999985,34.76618699999926,35.71983270000055,024780,001,2024-04-28_13h53.14.781,ArchivoPrueba,2024.1.1,None,2024-04-28 13h53.28.526944 -0500,
¿Recuerda  algún inconveniente que ha  experimentado en el camino de su residencia a su lugar de trabajo?,5,white,0,0,0,0,0,2,2,2,35.76607300000069,,,,,,,,,,,,,,,35.721127999999226,35.76607300000069,36.72151389999999,024780,001,2024-04-28_13h53.14.781,ArchivoPrueba,2024.1.1,None,2024-04-28 13h53.28.526944 -0500,
¿Recuerda si hay algún lugar u objeto en su camino hacia el trabajo que le llame la atención?,7,blue,0,0,0,0,0,3,3,3,36.76400459999968,,,,,,,,,,,,,,,36.72306019999996,36.76400459999968,37.717252099999314,024780,001,2024-04-28_13h53.14.781,ArchivoPrueba,2024.1.1,None,2024-04-28 13h53.28.526944 -0500,
" ¿Recuerda el recorrido desde la entrada de su lugar de trabajo hasta su oficina, donde realiza sus funciones?",9,yellow,0,0,0,0,0,4,4,4,37.747202799999286,,,,,,,,,,,,,,,37.718528100000185,37.747202799999286,38.7135631000001,024780,001,2024-04-28_13h53.14.781,ArchivoPrueba,2024.1.1,None,2024-04-28 13h53.28.526944 -0500,
¿Recuerda alguna actividad que realice durante los viajes de regreso a casa desde el trabajo para relajarse?,11,orange,0,0,0,0,0,5,5,5,38.75518639999973,,,,,,,,,,,,,,,38.71431909999956,38.75518639999973,39.73943110000073,024780,001,2024-04-28_13h53.14.781,ArchivoPrueba,2024.1.1,None,2024-04-28 13h53.28.526944 -0500,
¿Recuerda el trayecto que realiza desde su casa hasta el lugar donde realiza sus compras?,13,brown,0,0,0,0,0,6,6,6,39.765308100000766,,,,,,,,,,,,,,,39.74014309999984,39.765308100000766,40.73030599999947,024780,001,2024-04-28_13h53.14.781,ArchivoPrueba,2024.1.1,None,2024-04-28 13h53.28.526944 -0500,
¿Recuerda alguna situación divertida o interesante que haya experimentado durante el recorrido hacia el lugar de compras?,15,purple,0,0,0,0,0,7,7,7,40.762677200000326,,,,,,,,,,,,,,,40.731281399999716,40.762677200000326,41.71497040000031,024780,001,2024-04-28_13h53.14.781,ArchivoPrueba,2024.1.1,None,2024-04-28 13h53.28.526944 -0500,
 ¿Recuerda qué es lo primero que ve al llegar al lugar donde realiza sus compras?,17,green,0,0,0,0,0,8,8,8,41.76188870000078,,,,,,,,,,,,,,,41.716482100000576,41.76188870000078,42.93708200000037,024780,001,2024-04-28_13h53.14.781,ArchivoPrueba,2024.1.1,None,2024-04-28 13h53.28.526944 -0500,
¿Recuerda el recorrido desde su residencia hasta el centro de resonancia magnética?,19,red,0,0,0,0,0,9,9,9,42.960367300000144,,,,,,,,,,,,,,,42.93796079999993,42.960367300000144,43.73630480000065,024780,001,2024-04-28_13h53.14.781,ArchivoPrueba,2024.1.1,None,2024-04-28 13h53.28.526944 -0500,
None,21,white,0,0,0,0,0,10,10,10,43.77465019999909,,,,,,,,,,,,,,,43.737152399999104,43.77465019999909,44.71814629999972,024780,001,2024-04-28_13h53.14.781,ArchivoPrueba,2024.1.1,None,2024-04-28 13h53.28.526944 -0500,
None,23,blue,0,0,0,0,0,11,11,11,44.74201560000074,,,,,,,,,,,,,,,44.71883379999963,44.74201560000074,45.71791940000003,024780,001,2024-04-28_13h53.14.781,ArchivoPrueba,2024.1.1,None,2024-04-28 13h53.28.526944 -0500,
None,25,yellow,0,0,0,0,0,12,12,12,45.74121539999942,,,,,,,,,,,,,,,45.71861849999914,45.74121539999942,46.73580299999958,024780,001,2024-04-28_13h53.14.781,ArchivoPrueba,2024.1.1,None,2024-04-28 13h53.28.526944 -0500,
None,27,orange,0,0,0,0,0,13,13,13,46.75746249999975,,,,,,,,,,,,,,,46.73660910000035,46.75746249999975,47.7548139999999,024780,001,2024-04-28_13h53.14.781,ArchivoPrueba,2024.1.1,None,2024-04-28 13h53.28.526944 -0500,
None,29,brown,0,0,0,0,0,14,14,14,47.816739699999744,,,,,,,,,,,,,,,47.7555854000002,47.816739699999744,48.719524099999035,024780,001,2024-04-28_13h53.14.781,ArchivoPrueba,2024.1.1,None,2024-04-28 13h53.28.526944 -0500,
None,31,purple,0,0,0,0,0,15,15,15,48.755940900000496,,,,,,,,,,,,,,,48.72070200000053,48.755940900000496,49.732718499999464,024780,001,2024-04-28_13h53.14.781,ArchivoPrueba,2024.1.1,None,2024-04-28 13h53.28.526944 -0500,
None,33,green,0,0,0,0,0,16,16,16,49.75465909999912,,,,,,,,,,,,,,,49.733972500000164,49.75465909999912,50.71753969999918,024780,001,2024-04-28_13h53.14.781,ArchivoPrueba,2024.1.1,None,2024-04-28 13h53.28.526944 -0500,
None,35,red,0,0,0,0,0,17,17,17,50.7536583000001,,,,,,,,,,,,,,,50.7193501999991,50.7536583000001,51.73283029999948,024780,001,2024-04-28_13h53.14.781,ArchivoPrueba,2024.1.1,None,2024-04-28 13h53.28.526944 -0500,
None,37,white,0,0,0,0,0,18,18,18,51.75264050000078,,,,,,,,,,,,,,,51.73366840000017,51.75264050000078,52.72004449999986,024780,001,2024-04-28_13h53.14.781,ArchivoPrueba,2024.1.1,None,2024-04-28 13h53.28.526944 -0500,
None,39,blue,0,0,0,0,0,19,19,19,52.75161350000053,,,,,,,,,,,,,,,52.720910100000765,52.75161350000053,53.709221200000684,024780,001,2024-04-28_13h53.14.781,ArchivoPrueba,2024.1.1,None,2024-04-28 13h53.28.526944 -0500,
¿Recuerda el recorrido que realiza desde su cama hasta la cocina de su residencia?,1,green,0,0,0,0,,,,,,,,,,,,,,,,,,,,,,,024780,001,2024-04-28_13h53.14.781,ArchivoPrueba,2024.1.1,None,2024-04-28 13h53.28.526944 -0500,
¿Recuerda el recorrido que realiza desde su cama hasta la cocina de su residencia?,1,green,0,1,1,1,0,0,0,0,73.80144680000012,,,,,,,,,,,,53.70996639999976,53.76643399999921,73.72205919999942,73.77765799999906,73.80144680000012,74.71884069999942,024780,001,2024-04-28_13h53.14.781,ArchivoPrueba,2024.1.1,None,2024-04-28 13h53.28.526944 -0500,
¿Recuerda el trayecto que hace desde su casa hasta su lugar de trabajo?,3,red,0,1,1,1,0,1,1,1,74.7503044999994,,,,,,,,,,,,,,,74.71994859999904,74.7503044999994,75.71780650000073,024780,001,2024-04-28_13h53.14.781,ArchivoPrueba,2024.1.1,None,2024-04-28 13h53.28.526944 -0500,
¿Recuerda  algún inconveniente que ha  experimentado en el camino de su residencia a su lugar de trabajo?,5,white,0,1,1,1,0,2,2,2,75.74926559999949,,,,,,,,,,,,,,,75.71885069999917,75.74926559999949,76.71309130000009,024780,001,2024-04-28_13h53.14.781,ArchivoPrueba,2024.1.1,None,2024-04-28 13h53.28.526944 -0500,
¿Recuerda si hay algún lugar u objeto en su camino hacia el trabajo que le llame la atención?,7,blue,0,1,1,1,0,3,3,3,76.74742639999931,,,,,,,,,,,,,,,76.71410699999979,76.74742639999931,77.71456079999916,024780,001,2024-04-28_13h53.14.781,ArchivoPrueba,2024.1.1,None,2024-04-28 13h53.28.526944 -0500,
" ¿Recuerda el recorrido desde la entrada de su lugar de trabajo hasta su oficina, donde realiza sus funciones?",9,yellow,0,1,1,1,0,4,4,4,77.7480388999993,,,,,,,,,,,,,,,77.71563640000022,77.7480388999993,78.71283140000014,024780,001,2024-04-28_13h53.14.781,ArchivoPrueba,2024.1.1,None,2024-04-28 13h53.28.526944 -0500,
¿Recuerda alguna actividad que realice durante los viajes de regreso a casa desde el trabajo para relajarse?,11,orange,0,1,1,1,0,5,5,5,78.74646509999911,,,,,,,,,,,,,,,78.7138759999998,78.74646509999911,79.76923329999954,024780,001,2024-04-28_13h53.14.781,ArchivoPrueba,2024.1.1,None,2024-04-28 13h53.28.526944 -0500,
¿Recuerda el trayecto que realiza desde su casa hasta el lugar donde realiza sus compras?,13,brown,0,1,1,1,0,6,6,6,79.81280030000016,,,,,,,,,,,,,,,79.77239609999924,79.81280030000016,80.73250559999906,024780,001,2024-04-28_13h53.14.781,ArchivoPrueba,2024.1.1,None,2024-04-28 13h53.28.526944 -0500,
¿Recuerda alguna situación divertida o interesante que haya experimentado durante el recorrido hacia el lugar de compras?,15,purple,0,1,1,1,0,7,7,7,80.7791001000005,,,,,,,,,,,,,,,80.73343249999925,80.7791001000005,81.75344539999969,024780,001,2024-04-28_13h53.14.781,ArchivoPrueba,2024.1.1,None,2024-04-28 13h53.28.526944 -0500,
 ¿Recuerda qué es lo primero que ve al llegar al lugar donde realiza sus compras?,17,green,0,1,1,1,0,8,8,8,81.79474230000051,,,,,,,,,,,,,,,81.75799200000074,81.79474230000051,82.72253549999914,024780,001,2024-04-28_13h53.14.781,ArchivoPrueba,2024.1.1,None,2024-04-28 13h53.28.526944 -0500,
¿Recuerda el recorrido desde su residencia hasta el centro de resonancia magnética?,19,red,0,1,1,1,0,9,9,9,82.7595609,,,,,,,,,,,,,,,82.72377450000022,82.7595609,83.74532550000004,024780,001,2024-04-28_13h53.14.781,ArchivoPrueba,2024.1.1,None,2024-04-28 13h53.28.526944 -0500,
None,21,white,0,1,1,1,0,10,10,10,83.77547709999999,,,,,,,,,,,,,,,83.74638120000054,83.77547709999999,84.72150630000033,024780,001,2024-04-28_13h53.14.781,ArchivoPrueba,2024.1.1,None,2024-04-28 13h53.28.526944 -0500,
None,23,blue,0,1,1,1,0,11,11,11,84.75786289999996,,,,,,,,,,,,,,,84.72272759999942,84.75786289999996,85.7360250999991,024780,001,2024-04-28_13h53.14.781,ArchivoPrueba,2024.1.1,None,2024-04-28 13h53.28.526944 -0500,
None,25,yellow,0,1,1,1,0,12,12,12,85.77387939999971,,,,,,,,,,,,,,,85.73732290000044,85.77387939999971,86.7219798999995,024780,001,2024-04-28_13h53.14.781,ArchivoPrueba,2024.1.1,None,2024-04-28 13h53.28.526944 -0500,
None,27,orange,0,1,1,1,0,13,13,13,86.75621479999973,,,,,,,,,,,,,,,86.7229711,86.75621479999973,87.71578079999927,024780,001,2024-04-28_13h53.14.781,ArchivoPrueba,2024.1.1,None,2024-04-28 13h53.28.526944 -0500,
None,29,brown,0,1,1,1,0,14,14,14,87.7403861999992,,,,,,,,,,,,,,,87.71753969999918,87.7403861999992,88.73290889999953,024780,001,2024-04-28_13h53.14.781,ArchivoPrueba,2024.1.1,None,2024-04-28 13h53.28.526944 -0500,
None,31,purple,0,1,1,1,0,15,15,15,88.7537639000002,,,,,,,,,,,,,,,88.73380729999917,88.7537639000002,89.73952409999947,024780,001,2024-04-28_13h53.14.781,ArchivoPrueba,2024.1.1,None,2024-04-28 13h53.28.526944 -0500,
None,33,green,0,1,1,1,0,16,16,16,89.76948559999983,,,,,,,,,,,,,,,89.74039450000055,89.76948559999983,90.73715850000008,024780,001,2024-04-28_13h53.14.781,ArchivoPrueba,2024.1.1,None,2024-04-28 13h53.28.526944 -0500,
None,35,red,0,1,1,1,0,17,17,17,90.76851130000068,,,,,,,,,,,,,,,90.73782749999918,90.76851130000068,91.72787489999973,024780,001,2024-04-28_13h53.14.781,ArchivoPrueba,2024.1.1,None,2024-04-28 13h53.28.526944 -0500,
None,37,white,0,1,1,1,0,18,18,18,91.75324750000073,,,,,,,,,,,,,,,91.72860170000058,91.75324750000073,92.72483420000026,024780,001,2024-04-28_13h53.14.781,ArchivoPrueba,2024.1.1,None,2024-04-28 13h53.28.526944 -0500,
None,39,blue,0,1,1,1,0,19,19,19,92.75265030000082,,,,,,,,,,,,,,,92.72552189999988,92.75265030000082,93.71325479999905,024780,001,2024-04-28_13h53.14.781,ArchivoPrueba,2024.1.1,None,2024-04-28 13h53.28.526944 -0500,
¿Recuerda el trayecto que hace desde su casa hasta su lugar de trabajo?,3,red,0,1,1,1,,,,,,,,,,,,,,,,,,,,,,,024780,001,2024-04-28_13h53.14.781,ArchivoPrueba,2024.1.1,None,2024-04-28 13h53.28.526944 -0500,
¿Recuerda el recorrido que realiza desde su cama hasta la cocina de su residencia?,1,green,0,2,2,2,0,0,0,0,113.76536920000035,,,,,,,,,,,,93.71452510000017,93.76498489999904,113.70768820000012,113.73407380000026,113.76536920000035,114.72462239999913,024780,001,2024-04-28_13h53.14.781,ArchivoPrueba,2024.1.1,None,2024-04-28 13h53.28.526944 -0500,
¿Recuerda el trayecto que hace desde su casa hasta su lugar de trabajo?,3,red,0,2,2,2,0,1,1,1,114.74743540000054,,,,,,,,,,,,,,,114.7252200999992,114.74743540000054,115.72097229999963,024780,001,2024-04-28_13h53.14.781,ArchivoPrueba,2024.1.1,None,2024-04-28 13h53.28.526944 -0500,
¿Recuerda  algún inconveniente que ha  experimentado en el camino de su residencia a su lugar de trabajo?,5,white,0,2,2,2,0,2,2,2,115.74661890000061,,,,,,,,,,,,,,,115.72154659999978,115.74661890000061,116.72068380000019,024780,001,2024-04-28_13h53.14.781,ArchivoPrueba,2024.1.1,None,2024-04-28 13h53.28.526944 -0500,
¿Recuerda si hay algún lugar u objeto en su camino hacia el trabajo que le llame la atención?,7,blue,0,2,2,2,0,3,3,3,116.74582910000026,,,,,,,,,,,,,,,116.72125799999958,116.74582910000026,117.71896799999922,024780,001,2024-04-28_13h53.14.781,ArchivoPrueba,2024.1.1,None,2024-04-28 13h53.28.526944 -0500,
" ¿Recuerda el recorrido desde la entrada de su lugar de trabajo hasta su oficina, donde realiza sus funciones?",9,yellow,0,2,2,2,0,4,4,4,117.74488199999905,,,,,,,,,,,,,,,117.71957640000073,117.74488199999905,118.71909020000021,024780,001,2024-04-28_13h53.14.781,ArchivoPrueba,2024.1.1,None,2024-04-28 13h53.28.526944 -0500,
¿Recuerda alguna actividad que realice durante los viajes de regreso a casa desde el trabajo para relajarse?,11,orange,0,2,2,2,0,5,5,5,118.74385230000007,,,,,,,,,,,,,,,118.71957490000023,118.74385230000007,119.7206600999998,024780,001,2024-04-28_13h53.14.781,ArchivoPrueba,2024.1.1,None,2024-04-28 13h53.28.526944 -0500,
¿Recuerda el trayecto que realiza desde su casa hasta el lugar donde realiza sus compras?,13,brown,0,2,2,2,0,6,6,6,119.7436859999998,,,,,,,,,,,,,,,119.72153109999999,119.7436859999998,120.71941619999961,024780,001,2024-04-28_13h53.14.781,ArchivoPrueba,2024.1.1,None,2024-04-28 13h53.28.526944 -0500,
¿Recuerda alguna situación divertida o interesante que haya experimentado durante el recorrido hacia el lugar de compras?,15,purple,0,2,2,2,0,7,7,7,120.74292349999996,,,,,,,,,,,,,,,120.72024179999971,120.74292349999996,121.71867209999982,024780,001,2024-04-28_13h53.14.781,ArchivoPrueba,2024.1.1,None,2024-04-28 13h53.28.526944 -0500,
 ¿Recuerda qué es lo primero que ve al llegar al lugar donde realiza sus compras?,17,green,0,2,2,2,0,8,8,8,121.7420531000007,,,,,,,,,,,,,,,121.7194727999995,121.7420531000007,122.71790350000083,024780,001,2024-04-28_13h53.14.781,ArchivoPrueba,2024.1.1,None,2024-04-28 13h53.28.526944 -0500,
¿Recuerda el recorrido desde su residencia hasta el centro de resonancia magnética?,19,red,0,2,2,2,0,9,9,9,122.74109470000076,,,,,,,,,,,,,,,122.71862730000066,122.74109470000076,123.71688560000075,024780,001,2024-04-28_13h53.14.781,ArchivoPrueba,2024.1.1,None,2024-04-28 13h53.28.526944 -0500,
None,21,white,0,2,2,2,0,10,10,10,123.74033600000075,,,,,,,,,,,,,,,123.71765050000067,123.74033600000075,124.71639440000035,024780,001,2024-04-28_13h53.14.781,ArchivoPrueba,2024.1.1,None,2024-04-28 13h53.28.526944 -0500,
None,23,blue,0,2,2,2,0,11,11,11,124.73949080000057,,,,,,,,,,,,,,,124.71721310000066,124.73949080000057,125.71533199999976,024780,001,2024-04-28_13h53.14.781,ArchivoPrueba,2024.1.1,None,2024-04-28 13h53.28.526944 -0500,
None,25,yellow,0,2,2,2,0,12,12,12,125.7387233999998,,,,,,,,,,,,,,,125.71635570000035,125.7387233999998,126.71411570000055,024780,001,2024-04-28_13h53.14.781,ArchivoPrueba,2024.1.1,None,2024-04-28 13h53.28.526944 -0500,
None,27,orange,0,2,2,2,0,13,13,13,126.73761399999967,,,,,,,,,,,,,,,126.71491600000081,126.73761399999967,127.71332989999974,024780,001,2024-04-28_13h53.14.781,ArchivoPrueba,2024.1.1,None,2024-04-28 13h53.28.526944 -0500,
None,29,brown,0,2,2,2,0,14,14,14,127.73682879999978,,,,,,,,,,,,,,,127.71420819999912,127.73682879999978,128.71172189999925,024780,001,2024-04-28_13h53.14.781,ArchivoPrueba,2024.1.1,None,2024-04-28 13h53.28.526944 -0500,
None,31,purple,0,2,2,2,0,15,15,15,128.73602570000003,,,,,,,,,,,,,,,128.7124387999993,128.73602570000003,129.71163739999974,024780,001,2024-04-28_13h53.14.781,ArchivoPrueba,2024.1.1,None,2024-04-28 13h53.28.526944 -0500,
None,33,green,0,2,2,2,0,16,16,16,129.7349981999996,,,,,,,,,,,,,,,129.71242849999908,129.7349981999996,130.7147984000003,024780,001,2024-04-28_13h53.14.781,ArchivoPrueba,2024.1.1,None,2024-04-28 13h53.28.526944 -0500,
None,35,red,0,2,2,2,0,17,17,17,130.75144399999954,,,,,,,,,,,,,,,130.71608240000023,130.75144399999954,131.7323579999993,024780,001,2024-04-28_13h53.14.781,ArchivoPrueba,2024.1.1,None,2024-04-28 13h53.28.526944 -0500,
None,37,white,0,2,2,2,0,18,18,18,131.76706360000026,,,,,,,,,,,,,,,131.73350840000057,131.76706360000026,132.7105061000002,024780,001,2024-04-28_13h53.14.781,ArchivoPrueba,2024.1.1,None,2024-04-28 13h53.28.526944 -0500,
None,39,blue,0,2,2,2,0,19,19,19,132.73289280000063,,,,,,,,,,,,,,,132.71141100000023,132.73289280000063,133.74674099999902,024780,001,2024-04-28_13h53.14.781,ArchivoPrueba,2024.1.1,None,2024-04-28 13h53.28.526944 -0500,
¿Recuerda  algún inconveniente que ha  experimentado en el camino de su residencia a su lugar de trabajo?,5,white,0,2,2,2,,,,,,,,,,,,,,,,,,,,,,,024780,001,2024-04-28_13h53.14.781,ArchivoPrueba,2024.1.1,None,2024-04-28 13h53.28.526944 -0500,
¿Recuerda el recorrido que realiza desde su cama hasta la cocina de su residencia?,1,green,0,3,3,3,0,0,0,0,153.79774139999972,,,,,,,,,,,,133.7489217000002,133.79706649999935,153.71520190000047,153.76358260000052,153.79774139999972,154.71039930000006,024780,001,2024-04-28_13h53.14.781,ArchivoPrueba,2024.1.1,None,2024-04-28 13h53.28.526944 -0500,
¿Recuerda el trayecto que hace desde su casa hasta su lugar de trabajo?,3,red,0,3,3,3,0,1,1,1,154.74721839999984,,,,,,,,,,,,,,,154.71168930000022,154.74721839999984,155.71264130000054,024780,001,2024-04-28_13h53.14.781,ArchivoPrueba,2024.1.1,None,2024-04-28 13h53.28.526944 -0500,
¿Recuerda  algún inconveniente que ha  experimentado en el camino de su residencia a su lugar de trabajo?,5,white,0,3,3,3,0,2,2,2,155.7465544000006,,,,,,,,,,,,,,,155.71373029999995,155.7465544000006,156.73684800000046,024780,001,2024-04-28_13h53.14.781,ArchivoPrueba,2024.1.1,None,2024-04-28 13h53.28.526944 -0500,
¿Recuerda si hay algún lugar u objeto en su camino hacia el trabajo que le llame la atención?,7,blue,0,3,3,3,0,3,3,3,156.76083760000074,,,,,,,,,,,,,,,156.73751439999978,156.76083760000074,157.71494419999908,024780,001,2024-04-28_13h53.14.781,ArchivoPrueba,2024.1.1,None,2024-04-28 13h53.28.526944 -0500,
" ¿Recuerda el recorrido desde la entrada de su lugar de trabajo hasta su oficina, donde realiza sus funciones?",9,yellow,0,3,3,3,0,4,4,4,157.7442656000003,,,,,,,,,,,,,,,157.71633010000005,157.7442656000003,158.70691439999973,024780,001,2024-04-28_13h53.14.781,ArchivoPrueba,2024.1.1,None,2024-04-28 13h53.28.526944 -0500,
¿Recuerda alguna actividad que realice durante los viajes de regreso a casa desde el trabajo para relajarse?,11,orange,0,3,3,3,0,5,5,5,158.7432843000006,,,,,,,,,,,,,,,158.70812830000068,158.7432843000006,159.7485968000001,024780,001,2024-04-28_13h53.14.781,ArchivoPrueba,2024.1.1,None,2024-04-28 13h53.28.526944 -0500,
¿Recuerda el trayecto que realiza desde su casa hasta el lugar donde realiza sus compras?,13,brown,0,3,3,3,0,6,6,6,159.7922705000001,,,,,,,,,,,,,,,159.74996509999983,159.7922705000001,160.74253209999915,024780,001,2024-04-28_13h53.14.781,ArchivoPrueba,2024.1.1,None,2024-04-28 13h53.28.526944 -0500,
¿Recuerda alguna situación divertida o interesante que haya experimentado durante el recorrido hacia el lugar de compras?,15,purple,0,3,3,3,0,7,7,7,160.7751358000005,,,,,,,,,,,,,,,160.74371710000014,160.7751358000005,161.72072219999973,024780,001,2024-04-28_13h53.14.781,ArchivoPrueba,2024.1.1,None,2024-04-28 13h53.28.526944 -0500,
 ¿Recuerda qué es lo primero que ve al llegar al lugar donde realiza sus compras?,17,green,0,3,3,3,0,8,8,8,161.7576982999999,,,,,,,,,,,,,,,161.72189590000016,161.7576982999999,162.72007359999952,024780,001,2024-04-28_13h53.14.781,ArchivoPrueba,2024.1.1,None,2024-04-28 13h53.28.526944 -0500,
¿Recuerda el recorrido desde su residencia hasta el centro de resonancia magnética?,19,red,0,3,3,3,0,9,9,9,162.7568900999995,,,,,,,,,,,,,,,162.7212983999998,162.7568900999995,163.73348179999994,024780,001,2024-04-28_13h53.14.781,ArchivoPrueba,2024.1.1,None,2024-04-28 13h53.28.526944 -0500,
None,21,white,0,3,3,3,0,10,10,10,163.7555838999997,,,,,,,,,,,,,,,163.73471980000068,163.7555838999997,164.73843090000082,024780,001,2024-04-28_13h53.14.781,ArchivoPrueba,2024.1.1,None,2024-04-28 13h53.28.526944 -0500,
None,23,blue,0,3,3,3,0,11,11,11,164.77160940000067,,,,,,,,,,,,,,,164.73958870000024,164.77160940000067,165.71823310000036,024780,001,2024-04-28_13h53.14.781,ArchivoPrueba,2024.1.1,None,2024-04-28 13h53.28.526944 -0500,
None,25,yellow,0,3,3,3,0,12,12,12,165.75407239999913,,,,,,,,,,,,,,,165.7197111000005,165.75407239999913,166.73432850000063,024780,001,2024-04-28_13h53.14.781,ArchivoPrueba,2024.1.1,None,2024-04-28 13h53.28.526944 -0500,
None,27,orange,0,3,3,3,0,13,13,13,166.76995480000005,,,,,,,,,,,,,,,166.73554779999904,166.76995480000005,167.7088691000008,024780,001,2024-04-28_13h53.14.781,ArchivoPrueba,2024.1.1,None,2024-04-28 13h53.28.526944 -0500,
None,29,brown,0,3,3,3,0,14,14,14,167.7515655999996,,,,,,,,,,,,,,,167.71007239999926,167.7515655999996,168.71770640000068,024780,001,2024-04-28_13h53.14.781,ArchivoPrueba,2024.1.1,None,2024-04-28 13h53.28.526944 -0500,
None,31,purple,0,3,3,3,0,15,15,15,168.7516214999996,,,,,,,,,,,,,,,168.71888430000035,168.7516214999996,169.73354029999973,024780,001,2024-04-28_13h53.14.781,ArchivoPrueba,2024.1.1,None,2024-04-28 13h53.28.526944 -0500,
None,33,green,0,3,3,3,0,16,16,16,169.76717180000014,,,,,,,,,,,,,,,169.73489309999968,169.76717180000014,170.71292580000045,024780,001,2024-04-28_13h53.14.781,ArchivoPrueba,2024.1.1,None,2024-04-28 13h53.28.526944 -0500,
None,35,red,0,3,3,3,0,17,17,17,170.74977089999993,,,,,,,,,,,,,,,170.71421679999912,170.74977089999993,171.7370405999991,024780,001,2024-04-28_13h53.14.781,ArchivoPrueba,2024.1.1,None,2024-04-28 13h53.28.526944 -0500,
None,37,white,0,3,3,3,0,18,18,18,171.7658133999994,,,,,,,,,,,,,,,171.73866260000068,171.7658133999994,172.7110630999996,024780,001,2024-04-28_13h53.14.781,ArchivoPrueba,2024.1.1,None,2024-04-28 13h53.28.526944 -0500,
None,39,blue,0,3,3,3,0,19,19,19,172.74817900000016,,,,,,,,,,,,,,,172.7122593999993,172.74817900000016,173.70839840000008,024780,001,2024-04-28_13h53.14.781,ArchivoPrueba,2024.1.1,None,2024-04-28 13h53.28.526944 -0500,
¿Recuerda si hay algún lugar u objeto en su camino hacia el trabajo que le llame la atención?,7,blue,0,3,3,3,,,,,,,,,,,,,,,,,,,,,,,024780,001,2024-04-28_13h53.14.781,ArchivoPrueba,2024.1.1,None,2024-04-28 13h53.28.526944 -0500,
¿Recuerda el recorrido que realiza desde su cama hasta la cocina de su residencia?,1,green,0,4,4,4,0,0,0,0,193.79629279999972,,,,,,,,,,,,173.71007540000028,173.76271590000033,193.7300135000005,193.77483159999974,193.79629279999972,194.70705970000017,024780,001,2024-04-28_13h53.14.781,ArchivoPrueba,2024.1.1,None,2024-04-28 13h53.28.526944 -0500,
¿Recuerda el trayecto que hace desde su casa hasta su lugar de trabajo?,3,red,0,4,4,4,0,1,1,1,194.74539809999987,,,,,,,,,,,,,,,194.70884269999988,194.74539809999987,195.71040539999922,024780,001,2024-04-28_13h53.14.781,ArchivoPrueba,2024.1.1,None,2024-04-28 13h53.28.526944 -0500,
¿Recuerda  algún inconveniente que ha  experimentado en el camino de su residencia a su lugar de trabajo?,5,white,0,4,4,4,0,2,2,2,195.7443992999997,,,,,,,,,,,,,,,195.7115002999999,195.7443992999997,196.7244494000006,024780,001,2024-04-28_13h53.14.781,ArchivoPrueba,2024.1.1,None,2024-04-28 13h53.28.526944 -0500,
¿Recuerda si hay algún lugar u objeto en su camino hacia el trabajo que le llame la atención?,7,blue,0,4,4,4,0,3,3,3,196.7603966000006,,,,,,,,,,,,,,,196.72556369999984,196.7603966000006,197.72445899999911,024780,001,2024-04-28_13h53.14.781,ArchivoPrueba,2024.1.1,None,2024-04-28 13h53.28.526944 -0500,
" ¿Recuerda el recorrido desde la entrada de su lugar de trabajo hasta su oficina, donde realiza sus funciones?",9,yellow,0,4,4,4,0,4,4,4,197.75992100000076,,,,,,,,,,,,,,,197.72656900000038,197.75992100000076,198.70853829999942,024780,001,2024-04-28_13h53.14.781,ArchivoPrueba,2024.1.1,None,2024-04-28 13h53.28.526944 -0500,
¿Recuerda alguna actividad que realice durante los viajes de regreso a casa desde el trabajo para relajarse?,11,orange,0,4,4,4,0,5,5,5,198.74195789999976,,,,,,,,,,,,,,,198.70963420000044,198.74195789999976,199.70676339999955,024780,001,2024-04-28_13h53.14.781,ArchivoPrueba,2024.1.1,None,2024-04-28 13h53.28.526944 -0500,
¿Recuerda el trayecto que realiza desde su casa hasta el lugar donde realiza sus compras?,13,brown,0,4,4,4,0,6,6,6,199.74114129999907,,,,,,,,,,,,,,,199.70768820000012,199.74114129999907,200.7422115999998,024780,001,2024-04-28_13h53.14.781,ArchivoPrueba,2024.1.1,None,2024-04-28 13h53.28.526944 -0500,
¿Recuerda alguna situación divertida o interesante que haya experimentado durante el recorrido hacia el lugar de compras?,15,purple,0,4,4,4,0,7,7,7,200.77348969999912,,,,,,,,,,,,,,,200.74356049999915,200.77348969999912,201.72033059999922,024780,001,2024-04-28_13h53.14.781,ArchivoPrueba,2024.1.1,None,2024-04-28 13h53.28.526944 -0500,
 ¿Recuerda qué es lo primero que ve al llegar al lugar donde realiza sus compras?,17,green,0,4,4,4,0,8,8,8,201.7560740000008,,,,,,,,,,,,,,,201.72178650000023,201.7560740000008,202.74004989999958,024780,001,2024-04-28_13h53.14.781,ArchivoPrueba,2024.1.1,None,2024-04-28 13h53.28.526944 -0500,
¿Recuerda el recorrido desde su residencia hasta el centro de resonancia magnética?,19,red,0,4,4,4,0,9,9,9,202.78902240000025,,,,,,,,,,,,,,,202.7423020999995,202.78902240000025,203.73370710000017,024780,001,2024-04-28_13h53.14.781,ArchivoPrueba,2024.1.1,None,2024-04-28 13h53.28.526944 -0500,
None,21,white,0,4,4,4,0,10,10,10,203.75333580000006,,,,,,,,,,,,,,,203.73471719999907,203.75333580000006,204.72657749999962,024780,001,2024-04-28_13h53.14.781,ArchivoPrueba,2024.1.1,None,2024-04-28 13h53.28.526944 -0500,
None,23,blue,0,4,4,4,0,11,11,11,204.75248450000072,,,,,,,,,,,,,,,204.7271295999999,204.75248450000072,205.72996219999914,024780,001,2024-04-28_13h53.14.781,ArchivoPrueba,2024.1.1,None,2024-04-28 13h53.28.526944 -0500,
None,25,yellow,0,4,4,4,0,12,12,12,205.7524343999994,,,,,,,,,,,,,,,205.73126240000056,205.7524343999994,206.73222139999962,024780,001,2024-04-28_13h53.14.781,ArchivoPrueba,2024.1.1,None,2024-04-28 13h53.28.526944 -0500,
None,27,orange,0,4,4,4,0,13,13,13,206.76816320000034,,,,,,,,,,,,,,,206.73320299999978,206.76816320000034,207.71047080000062,024780,001,2024-04-28_13h53.14.781,ArchivoPrueba,2024.1.1,None,2024-04-28 13h53.28.526944 -0500,
None,29,brown,0,4,4,4,0,14,14,14,207.73372550000022,,,,,,,,,,,,,,,207.71125530000063,207.73372550000022,208.7096378999995,024780,001,2024-04-28_13h53.14.781,ArchivoPrueba,2024.1.1,None,2024-04-28 13h53.28.526944 -0500,
None,31,purple,0,4,4,4,0,15,15,15,208.7329379999992,,,,,,,,,,,,,,,208.71052240000063,208.7329379999992,209.70895829999972,024780,001,2024-04-28_13h53.14.781,ArchivoPrueba,2024.1.1,None,2024-04-28 13h53.28.526944 -0500,
None,33,green,0,4,4,4,0,16,16,16,209.73285100000066,,,,,,,,,,,,,,,209.7097522999993,209.73285100000066,210.7079195999995,024780,001,2024-04-28_13h53.14.781,ArchivoPrueba,2024.1.1,None,2024-04-28 13h53.28.526944 -0500,
None,35,red,0,4,4,4,0,17,17,17,210.73130839999976,,,,,,,,,,,,,,,210.7087663000002,210.73130839999976,211.71134139999958,024780,001,2024-04-28_13h53.14.781,ArchivoPrueba,2024.1.1,None,2024-04-28 13h53.28.526944 -0500,
None,37,white,0,4,4,4,0,18,18,18,211.74766640000053,,,,,,,,,,,,,,,211.71245140000065,211.74766640000053,212.7240311000005,024780,001,2024-04-28_13h53.14.781,ArchivoPrueba,2024.1.1,None,2024-04-28 13h53.28.526944 -0500,
None,39,blue,0,4,4,4,0,19,19,19,212.76305870000033,,,,,,,,,,,,,,,212.72546669999974,212.76305870000033,213.70903200000066,024780,001,2024-04-28_13h53.14.781,ArchivoPrueba,2024.1.1,None,2024-04-28 13h53.28.526944 -0500,
" ¿Recuerda el recorrido desde la entrada de su lugar de trabajo hasta su oficina, donde realiza sus funciones?",9,yellow,0,4,4,4,,,,,,,,,,,,,,,,,,,,,,,024780,001,2024-04-28_13h53.14.781,ArchivoPrueba,2024.1.1,None,2024-04-28 13h53.28.526944 -0500,
¿Recuerda el recorrido que realiza desde su cama hasta la cocina de su residencia?,1,green,0,5,5,5,0,0,0,0,233.79484960000082,,,,,,,,,,,,213.71036549999917,213.76267089999965,233.72517890000017,233.75703649999923,233.79484960000082,234.70819239999946,024780,001,2024-04-28_13h53.14.781,ArchivoPrueba,2024.1.1,None,2024-04-28 13h53.28.526944 -0500,
¿Recuerda el trayecto que hace desde su casa hasta su lugar de trabajo?,3,red,0,5,5,5,0,1,1,1,234.74403949999942,,,,,,,,,,,,,,,234.70948839999983,234.74403949999942,235.7237685,024780,001,2024-04-28_13h53.14.781,ArchivoPrueba,2024.1.1,None,2024-04-28 13h53.28.526944 -0500,
¿Recuerda  algún inconveniente que ha  experimentado en el camino de su residencia a su lugar de trabajo?,5,white,0,5,5,5,0,2,2,2,235.76020169999902,,,,,,,,,,,,,,,235.72511169999962,235.76020169999902,236.74764180000057,024780,001,2024-04-28_13h53.14.781,ArchivoPrueba,2024.1.1,None,2024-04-28 13h53.28.526944 -0500,
¿Recuerda si hay algún lugar u objeto en su camino hacia el trabajo que le llame la atención?,7,blue,0,5,5,5,0,3,3,3,236.77585340000041,,,,,,,,,,,,,,,236.74910049999926,236.77585340000041,237.7235196999991,024780,001,2024-04-28_13h53.14.781,ArchivoPrueba,2024.1.1,None,2024-04-28 13h53.28.526944 -0500,
" ¿Recuerda el recorrido desde la entrada de su lugar de trabajo hasta su oficina, donde realiza sus funciones?",9,yellow,0,5,5,5,0,4,4,4,237.75852339999983,,,,,,,,,,,,,,,237.72468689999914,237.75852339999983,238.7073223999996,024780,001,2024-04-28_13h53.14.781,ArchivoPrueba,2024.1.1,None,2024-04-28 13h53.28.526944 -0500,
¿Recuerda alguna actividad que realice durante los viajes de regreso a casa desde el trabajo para relajarse?,11,orange,0,5,5,5,0,5,5,5,238.74065689999952,,,,,,,,,,,,,,,238.7083788,238.74065689999952,239.74172820000058,024780,001,2024-04-28_13h53.14.781,ArchivoPrueba,2024.1.1,None,2024-04-28 13h53.28.526944 -0500,
¿Recuerda el trayecto que realiza desde su casa hasta el lugar donde realiza sus compras?,13,brown,0,5,5,5,0,6,6,6,239.7731578999992,,,,,,,,,,,,,,,239.7431235999993,239.7731578999992,240.71883659999912,024780,001,2024-04-28_13h53.14.781,ArchivoPrueba,2024.1.1,None,2024-04-28 13h53.28.526944 -0500,
¿Recuerda alguna situación divertida o interesante que haya experimentado durante el recorrido hacia el lugar de compras?,15,purple,0,5,5,5,0,7,7,7,240.7553114000002,,,,,,,,,,,,,,,240.7202269999998,240.7553114000002,241.7369923999995,024780,001,2024-04-28_13h53.14.781,ArchivoPrueba,2024.1.1,None,2024-04-28 13h53.28.526944 -0500,
 ¿Recuerda qué es lo primero que ve al llegar al lugar donde realiza sus compras?,17,green,0,5,5,5,0,8,8,8,241.7711650000001,,,,,,,,,,,,,,,241.73830599999928,241.7711650000001,242.71443759999966,024780,001,2024-04-28_13h53.14.781,ArchivoPrueba,2024.1.1,None,2024-04-28 13h53.28.526944 -0500,
¿Recuerda el recorrido desde su residencia hasta el centro de resonancia magnética?,19,red,0,5,5,5,0,9,9,9,242.75360980000005,,,,,,,,,,,,,,,242.71535369999947,242.75360980000005,243.73448380000082,024780,001,2024-04-28_13h53.14.781,ArchivoPrueba,2024.1.1,None,2024-04-28 13h53.28.526944 -0500,
None,21,white,0,5,5,5,0,10,10,10,243.76946789999965,,,,,,,,,,,,,,,243.73582390000047,243.76946789999965,244.71391819999917,024780,001,2024-04-28_13h53.14.781,ArchivoPrueba,2024.1.1,None,2024-04-28 13h53.28.526944 -0500,
None,23,blue,0,5,5,5,0,11,11,11,244.7519783000007,,,,,,,,,,,,,,,244.71546040000067,244.7519783000007,245.7331954000001,024780,001,2024-04-28_13h53.14.781,ArchivoPrueba,2024.1.1,None,2024-04-28 13h53.28.526944 -0500,
None,25,yellow,0,5,5,5,0,12,12,12,245.76774449999903,,,,,,,,,,,,,,,245.73441989999992,245.76774449999903,246.71352040000056,024780,001,2024-04-28_13h53.14.781,ArchivoPrueba,2024.1.1,None,2024-04-28 13h53.28.526944 -0500,
None,27,orange,0,5,5,5,0,13,13,13,246.75014589999955,,,,,,,,,,,,,,,246.7146498000002,246.75014589999955,247.74040570000034,024780,001,2024-04-28_13h53.14.781,ArchivoPrueba,2024.1.1,None,2024-04-28 13h53.28.526944 -0500,
None,29,brown,0,5,5,5,0,14,14,14,247.7826516999994,,,,,,,,,,,,,,,247.74213070000042,247.7826516999994,248.734261399999,024780,001,2024-04-28_13h53.14.781,ArchivoPrueba,2024.1.1,None,2024-04-28 13h53.28.526944 -0500,
None,31,purple,0,5,5,5,0,15,15,15,248.7649308,,,,,,,,,,,,,,,248.73533999999927,248.7649308,249.70837869999923,024780,001,2024-04-28_13h53.14.781,ArchivoPrueba,2024.1.1,None,2024-04-28 13h53.28.526944 -0500,
None,33,green,0,5,5,5,0,16,16,16,249.73094610000044,,,,,,,,,,,,,,,249.7092995999992,249.73094610000044,250.7087319000002,024780,001,2024-04-28_13h53.14.781,ArchivoPrueba,2024.1.1,None,2024-04-28 13h53.28.526944 -0500,
None,35,red,0,5,5,5,0,17,17,17,250.74687059999997,,,,,,,,,,,,,,,250.7104326000008,250.74687059999997,251.72567039999922,024780,001,2024-04-28_13h53.14.781,ArchivoPrueba,2024.1.1,None,2024-04-28 13h53.28.526944 -0500,
None,37,white,0,5,5,5,0,18,18,18,251.76239239999995,,,,,,,,,,,,,,,251.7269238000008,251.76239239999995,252.7080674000008,024780,001,2024-04-28_13h53.14.781,ArchivoPrueba,2024.1.1,None,2024-04-28 13h53.28.526944 -0500,
None,39,blue,0,5,5,5,0,19,19,19,252.74487450000015,,,,,,,,,,,,,,,252.7094175000002,252.74487450000015,253.72459359999993,024780,001,2024-04-28_13h53.14.781,ArchivoPrueba,2024.1.1,None,2024-04-28 13h53.28.526944 -0500,
¿Recuerda alguna actividad que realice durante los viajes de regreso a casa desde el trabajo para relajarse?,11,orange,0,5,5,5,,,,,,,,,,,,,,,,,,,,,,,024780,001,2024-04-28_13h53.14.781,ArchivoPrueba,2024.1.1,None,2024-04-28 13h53.28.526944 -0500,
¿Recuerda el recorrido que realiza desde su cama hasta la cocina de su residencia?,1,green,0,6,6,6,0,0,0,0,273.7931004000002,,,,,,,,,,,,253.72590820000005,253.77754789999926,273.72149419999914,273.76077970000006,273.7931004000002,274.74418479999986,024780,001,2024-04-28_13h53.14.781,ArchivoPrueba,2024.1.1,None,2024-04-28 13h53.28.526944 -0500,
¿Recuerda el trayecto que hace desde su casa hasta su lugar de trabajo?,3,red,0,6,6,6,0,1,1,1,274.77594409999983,,,,,,,,,,,,,,,274.7450869000004,274.77594409999983,275.72226109999974,024780,001,2024-04-28_13h53.14.781,ArchivoPrueba,2024.1.1,None,2024-04-28 13h53.28.526944 -0500,
¿Recuerda  algún inconveniente que ha  experimentado en el camino de su residencia a su lugar de trabajo?,5,white,0,6,6,6,0,2,2,2,275.7584107999992,,,,,,,,,,,,,,,275.72359420000066,275.7584107999992,276.7117259000006,024780,001,2024-04-28_13h53.14.781,ArchivoPrueba,2024.1.1,None,2024-04-28 13h53.28.526944 -0500,
¿Recuerda si hay algún lugar u objeto en su camino hacia el trabajo que le llame la atención?,7,blue,0,6,6,6,0,3,3,3,276.74032719999923,,,,,,,,,,,,,,,276.71272900000076,276.74032719999923,277.71872020000046,024780,001,2024-04-28_13h53.14.781,ArchivoPrueba,2024.1.1,None,2024-04-28 13h53.28.526944 -0500,
" ¿Recuerda el recorrido desde la entrada de su lugar de trabajo hasta su oficina, donde realiza sus funciones?",9,yellow,0,6,6,6,0,4,4,4,277.7563817999999,,,,,,,,,,,,,,,277.72043719999965,277.7563817999999,278.7210006000005,024780,001,2024-04-28_13h53.14.781,ArchivoPrueba,2024.1.1,None,2024-04-28 13h53.28.526944 -0500,
¿Recuerda alguna actividad que realice durante los viajes de regreso a casa desde el trabajo para relajarse?,11,orange,0,6,6,6,0,5,5,5,278.7561423999996,,,,,,,,,,,,,,,278.72212840000066,278.7561423999996,279.70687069999985,024780,001,2024-04-28_13h53.14.781,ArchivoPrueba,2024.1.1,None,2024-04-28 13h53.28.526944 -0500,
¿Recuerda el trayecto que realiza desde su casa hasta el lugar donde realiza sus compras?,13,brown,0,6,6,6,0,6,6,6,279.73833299999933,,,,,,,,,,,,,,,279.7082771000005,279.73833299999933,280.73460800000066,024780,001,2024-04-28_13h53.14.781,ArchivoPrueba,2024.1.1,None,2024-04-28 13h53.28.526944 -0500,
¿Recuerda alguna situación divertida o interesante que haya experimentado durante el recorrido hacia el lugar de compras?,15,purple,0,6,6,6,0,7,7,7,280.7705879999994,,,,,,,,,,,,,,,280.73604929999965,280.7705879999994,281.7159001,024780,001,2024-04-28_13h53.14.781,ArchivoPrueba,2024.1.1,None,2024-04-28 13h53.28.526944 -0500,
 ¿Recuerda qué es lo primero que ve al llegar al lugar donde realiza sus compras?,17,green,0,6,6,6,0,8,8,8,281.75294589999976,,,,,,,,,,,,,,,281.7172150999995,281.75294589999976,282.72682069999973,024780,001,2024-04-28_13h53.14.781,ArchivoPrueba,2024.1.1,None,2024-04-28 13h53.28.526944 -0500,
¿Recuerda el recorrido desde su residencia hasta el centro de resonancia magnética?,19,red,0,6,6,6,0,9,9,9,282.7516708000003,,,,,,,,,,,,,,,282.72773439999946,282.7516708000003,283.7268915000004,024780,001,2024-04-28_13h53.14.781,ArchivoPrueba,2024.1.1,None,2024-04-28 13h53.28.526944 -0500,
None,21,white,0,6,6,6,0,10,10,10,283.75054640000053,,,,,,,,,,,,,,,283.72752070000024,283.75054640000053,284.72862220000025,024780,001,2024-04-28_13h53.14.781,ArchivoPrueba,2024.1.1,None,2024-04-28 13h53.28.526944 -0500,
None,23,blue,0,6,6,6,0,11,11,11,284.7668522999993,,,,,,,,,,,,,,,284.7303962999995,284.7668522999993,285.7349721999999,024780,001,2024-04-28_13h53.14.781,ArchivoPrueba,2024.1.1,None,2024-04-28 13h53.28.526944 -0500,
None,25,yellow,0,6,6,6,0,12,12,12,285.7659734000008,,,,,,,,,,,,,,,285.73587640000005,285.7659734000008,286.7091522999999,024780,001,2024-04-28_13h53.14.781,ArchivoPrueba,2024.1.1,None,2024-04-28 13h53.28.526944 -0500,
None,27,orange,0,6,6,6,0,13,13,13,286.7317172999992,,,,,,,,,,,,,,,286.7102211000001,286.7317172999992,287.7295341000008,024780,001,2024-04-28_13h53.14.781,ArchivoPrueba,2024.1.1,None,2024-04-28 13h53.28.526944 -0500,
None,29,brown,0,6,6,6,0,14,14,14,287.7644461,,,,,,,,,,,,,,,287.7305558999997,287.7644461,288.7103931999991,024780,001,2024-04-28_13h53.14.781,ArchivoPrueba,2024.1.1,None,2024-04-28 13h53.28.526944 -0500,
None,31,purple,0,6,6,6,0,15,15,15,288.74692289999984,,,,,,,,,,,,,,,288.71152529999927,288.74692289999984,289.7259630999997,024780,001,2024-04-28_13h53.14.781,ArchivoPrueba,2024.1.1,None,2024-04-28 13h53.28.526944 -0500,
None,33,green,0,6,6,6,0,16,16,16,289.7627486000001,,,,,,,,,,,,,,,289.72746860000007,289.7627486000001,290.7092570999994,024780,001,2024-04-28_13h53.14.781,ArchivoPrueba,2024.1.1,None,2024-04-28 13h53.28.526944 -0500,
None,35,red,0,6,6,6,0,17,17,17,290.7452097000005,,,,,,,,,,,,,,,290.7104268999992,290.7452097000005,291.72530650000044,024780,001,2024-04-28_13h53.14.781,ArchivoPrueba,2024.1.1,None,2024-04-28 13h53.28.526944 -0500,
None,37,white,0,6,6,6,0,18,18,18,291.7608438999996,,,,,,,,,,,,,,,291.7265633999996,291.7608438999996,292.70692360000066,024780,001,2024-04-28_13h53.14.781,ArchivoPrueba,2024.1.1,None,2024-04-28 13h53.28.526944 -0500,
None,39,blue,0,6,6,6,0,19,19,19,292.7433782999997,,,,,,,,,,,,,,,292.70837120000033,292.7433782999997,293.71994839999934,024780,001,2024-04-28_13h53.14.781,ArchivoPrueba,2024.1.1,None,2024-04-28 13h53.28.526944 -0500,
¿Recuerda el trayecto que realiza desde su casa hasta el lugar donde realiza sus compras?,13,brown,0,6,6,6,,,,,,,,,,,,,,,,,,,,,,,024780,001,2024-04-28_13h53.14.781,ArchivoPrueba,2024.1.1,None,2024-04-28 13h53.28.526944 -0500,
¿Recuerda el recorrido que realiza desde su cama hasta la cocina de su residencia?,1,green,0,7,7,7,0,0,0,0,313.79138649999913,,,,,,,,,,,,293.7214592,293.77601700000014,313.7405297999994,313.7708877999994,313.79138649999913,314.73763399999916,024780,001,2024-04-28_13h53.14.781,ArchivoPrueba,2024.1.1,None,2024-04-28 13h53.28.526944 -0500,
¿Recuerda el trayecto que hace desde su casa hasta su lugar de trabajo?,3,red,0,7,7,7,0,1,1,1,314.7740408999998,,,,,,,,,,,,,,,314.73926310000024,314.7740408999998,315.7164825,024780,001,2024-04-28_13h53.14.781,ArchivoPrueba,2024.1.1,None,2024-04-28 13h53.28.526944 -0500,
¿Recuerda  algún inconveniente que ha  experimentado en el camino de su residencia a su lugar de trabajo?,5,white,0,7,7,7,0,2,2,2,315.74003359999915,,,,,,,,,,,,,,,315.7175544999991,315.74003359999915,316.7159431,024780,001,2024-04-28_13h53.14.781,ArchivoPrueba,2024.1.1,None,2024-04-28 13h53.28.526944 -0500,
¿Recuerda si hay algún lugar u objeto en su camino hacia el trabajo que le llame la atención?,7,blue,0,7,7,7,0,3,3,3,316.7387538999992,,,,,,,,,,,,,,,316.7168387999991,316.7387538999992,317.7188045999992,024780,001,2024-04-28_13h53.14.781,ArchivoPrueba,2024.1.1,None,2024-04-28 13h53.28.526944 -0500,
" ¿Recuerda el recorrido desde la entrada de su lugar de trabajo hasta su oficina, donde realiza sus funciones?",9,yellow,0,7,7,7,0,4,4,4,317.75467279999975,,,,,,,,,,,,,,,317.7200761999993,317.75467279999975,318.7334155999997,024780,001,2024-04-28_13h53.14.781,ArchivoPrueba,2024.1.1,None,2024-04-28 13h53.28.526944 -0500,
¿Recuerda alguna actividad que realice durante los viajes de regreso a casa desde el trabajo para relajarse?,11,orange,0,7,7,7,0,5,5,5,318.77054619999944,,,,,,,,,,,,,,,318.73498909999944,318.77054619999944,319.7141680000004,024780,001,2024-04-28_13h53.14.781,ArchivoPrueba,2024.1.1,None,2024-04-28 13h53.28.526944 -0500,
¿Recuerda el trayecto que realiza desde su casa hasta el lugar donde realiza sus compras?,13,brown,0,7,7,7,0,6,6,6,319.7366543999997,,,,,,,,,,,,,,,319.7153467999997,319.7366543999997,320.7135094000005,024780,001,2024-04-28_13h53.14.781,ArchivoPrueba,2024.1.1,None,2024-04-28 13h53.28.526944 -0500,
¿Recuerda alguna situación divertida o interesante que haya experimentado durante el recorrido hacia el lugar de compras?,15,purple,0,7,7,7,0,7,7,7,320.73520199999984,,,,,,,,,,,,,,,320.7149795999994,320.73520199999984,321.7121048000008,024780,001,2024-04-28_13h53.14.781,ArchivoPrueba,2024.1.1,None,2024-04-28 13h53.28.526944 -0500,
 ¿Recuerda qué es lo primero que ve al llegar al lugar donde realiza sus compras?,17,green,0,7,7,7,0,8,8,8,321.73454440000023,,,,,,,,,,,,,,,321.7131537000005,321.73454440000023,322.72399869999936,024780,001,2024-04-28_13h53.14.781,ArchivoPrueba,2024.1.1,None,2024-04-28 13h53.28.526944 -0500,
¿Recuerda el recorrido desde su residencia hasta el centro de resonancia magnética?,19,red,0,7,7,7,0,9,9,9,322.7502346000001,,,,,,,,,,,,,,,322.7246353999999,322.7502346000001,323.72423490000074,024780,001,2024-04-28_13h53.14.781,ArchivoPrueba,2024.1.1,None,2024-04-28 13h53.28.526944 -0500,
None,21,white,0,7,7,7,0,10,10,10,323.74925520000033,,,,,,,,,,,,,,,323.7248849000007,323.74925520000033,324.7231804000003,024780,001,2024-04-28_13h53.14.781,ArchivoPrueba,2024.1.1,None,2024-04-28 13h53.28.526944 -0500,
None,23,blue,0,7,7,7,0,11,11,11,324.7482839000004,,,,,,,,,,,,,,,324.7238634999994,324.7482839000004,325.7432700999998,024780,001,2024-04-28_13h53.14.781,ArchivoPrueba,2024.1.1,None,2024-04-28 13h53.28.526944 -0500,
None,25,yellow,0,7,7,7,0,12,12,12,325.7640971000001,,,,,,,,,,,,,,,325.7450064000004,325.7640971000001,326.72665959999904,024780,001,2024-04-28_13h53.14.781,ArchivoPrueba,2024.1.1,None,2024-04-28 13h53.28.526944 -0500,
None,27,orange,0,7,7,7,0,13,13,13,326.7635023999992,,,,,,,,,,,,,,,326.7277560000002,326.7635023999992,327.7066790000008,024780,001,2024-04-28_13h53.14.781,ArchivoPrueba,2024.1.1,None,2024-04-28 13h53.28.526944 -0500,
None,29,brown,0,7,7,7,0,14,14,14,327.7294664000001,,,,,,,,,,,,,,,327.7080131999992,327.7294664000001,328.7427571999997,024780,001,2024-04-28_13h53.14.781,ArchivoPrueba,2024.1.1,None,2024-04-28 13h53.28.526944 -0500,
None,31,purple,0,7,7,7,0,15,15,15,328.7786894000001,,,,,,,,,,,,,,,328.7441397999992,328.7786894000001,329.7078031000001,024780,001,2024-04-28_13h53.14.781,ArchivoPrueba,2024.1.1,None,2024-04-28 13h53.28.526944 -0500,
None,33,green,0,7,7,7,0,16,16,16,329.7269120000001,,,,,,,,,,,,,,,329.7084847999995,329.7269120000001,330.7175564999998,024780,001,2024-04-28_13h53.14.781,ArchivoPrueba,2024.1.1,None,2024-04-28 13h53.28.526944 -0500,
None,35,red,0,7,7,7,0,17,17,17,330.7427112999994,,,,,,,,,,,,,,,330.7181084999993,330.7427112999994,331.7188996999994,024780,001,2024-04-28_13h53.14.781,ArchivoPrueba,2024.1.1,None,2024-04-28 13h53.28.526944 -0500,
None,37,white,0,7,7,7,0,18,18,18,331.74226649999946,,,,,,,,,,,,,,,331.7196459000006,331.74226649999946,332.71780600000056,024780,001,2024-04-28_13h53.14.781,ArchivoPrueba,2024.1.1,None,2024-04-28 13h53.28.526944 -0500,
None,39,blue,0,7,7,7,0,19,19,19,332.7415101000006,,,,,,,,,,,,,,,332.7186435000003,332.7415101000006,333.7174658999993,024780,001,2024-04-28_13h53.14.781,ArchivoPrueba,2024.1.1,None,2024-04-28 13h53.28.526944 -0500,
¿Recuerda alguna situación divertida o interesante que haya experimentado durante el recorrido hacia el lugar de compras?,15,purple,0,7,7,7,,,,,,,,,,,,,,,,,,,,,,,024780,001,2024-04-28_13h53.14.781,ArchivoPrueba,2024.1.1,None,2024-04-28 13h53.28.526944 -0500,
¿Recuerda el recorrido que realiza desde su cama hasta la cocina de su residencia?,1,green,0,8,8,8,0,0,0,0,353.7901008000008,,,,,,,,,,,,333.71863329999906,333.7560594000006,353.7203026999996,353.76381179999953,353.7901008000008,354.73540760000105,024780,001,2024-04-28_13h53.14.781,ArchivoPrueba,2024.1.1,None,2024-04-28 13h53.28.526944 -0500,
¿Recuerda el trayecto que hace desde su casa hasta su lugar de trabajo?,3,red,0,8,8,8,0,1,1,1,354.7726694000012,,,,,,,,,,,,,,,354.73706870000024,354.7726694000012,355.7187414,024780,001,2024-04-28_13h53.14.781,ArchivoPrueba,2024.1.1,None,2024-04-28 13h53.28.526944 -0500,
¿Recuerda  algún inconveniente que ha  experimentado en el camino de su residencia a su lugar de trabajo?,5,white,0,8,8,8,0,2,2,2,355.7550676999999,,,,,,,,,,,,,,,355.72036260000095,355.7550676999999,356.7348459999994,024780,001,2024-04-28_13h53.14.781,ArchivoPrueba,2024.1.1,None,2024-04-28 13h53.28.526944 -0500,
¿Recuerda si hay algún lugar u objeto en su camino hacia el trabajo que le llame la atención?,7,blue,0,8,8,8,0,3,3,3,356.7709231000008,,,,,,,,,,,,,,,356.73600539999825,356.7709231000008,357.7194175000004,024780,001,2024-04-28_13h53.14.781,ArchivoPrueba,2024.1.1,None,2024-04-28 13h53.28.526944 -0500,
" ¿Recuerda el recorrido desde la entrada de su lugar de trabajo hasta su oficina, donde realiza sus funciones?",9,yellow,0,8,8,8,0,4,4,4,357.7531885999997,,,,,,,,,,,,,,,357.72061459999895,357.7531885999997,358.73468460000004,024780,001,2024-04-28_13h53.14.781,ArchivoPrueba,2024.1.1,None,2024-04-28 13h53.28.526944 -0500,
¿Recuerda alguna actividad que realice durante los viajes de regreso a casa desde el trabajo para relajarse?,11,orange,0,8,8,8,0,5,5,5,358.7693508000011,,,,,,,,,,,,,,,358.73559970000133,358.7693508000011,359.7186365000016,024780,001,2024-04-28_13h53.14.781,ArchivoPrueba,2024.1.1,None,2024-04-28 13h53.28.526944 -0500,
¿Recuerda el trayecto que realiza desde su casa hasta el lugar donde realiza sus compras?,13,brown,0,8,8,8,0,6,6,6,359.7516257999996,,,,,,,,,,,,,,,359.7197401000012,359.7516257999996,360.7079675999994,024780,001,2024-04-28_13h53.14.781,ArchivoPrueba,2024.1.1,None,2024-04-28 13h53.28.526944 -0500,
¿Recuerda alguna situación divertida o interesante que haya experimentado durante el recorrido hacia el lugar de compras?,15,purple,0,8,8,8,0,7,7,7,360.73328290000063,,,,,,,,,,,,,,,360.7086434999983,360.73328290000063,361.7095233,024780,001,2024-04-28_13h53.14.781,ArchivoPrueba,2024.1.1,None,2024-04-28 13h53.28.526944 -0500,
 ¿Recuerda qué es lo primero que ve al llegar al lugar donde realiza sus compras?,17,green,0,8,8,8,0,8,8,8,361.73266650000005,,,,,,,,,,,,,,,361.71005050000167,361.73266650000005,362.70763889999944,024780,001,2024-04-28_13h53.14.781,ArchivoPrueba,2024.1.1,None,2024-04-28 13h53.28.526944 -0500,
¿Recuerda el recorrido desde su residencia hasta el centro de resonancia magnética?,19,red,0,8,8,8,0,9,9,9,362.73148260000016,,,,,,,,,,,,,,,362.7081708000005,362.73148260000016,363.7256235999994,024780,001,2024-04-28_13h53.14.781,ArchivoPrueba,2024.1.1,None,2024-04-28 13h53.28.526944 -0500,
None,21,white,0,8,8,8,0,10,10,10,363.7474809999985,,,,,,,,,,,,,,,363.72664330000043,363.7474809999985,364.72261979999894,024780,001,2024-04-28_13h53.14.781,ArchivoPrueba,2024.1.1,None,2024-04-28 13h53.28.526944 -0500,
None,23,blue,0,8,8,8,0,11,11,11,364.7454835999997,,,,,,,,,,,,,,,364.72331420000046,364.7454835999997,365.71838260000004,024780,001,2024-04-28_13h53.14.781,ArchivoPrueba,2024.1.1,None,2024-04-28 13h53.28.526944 -0500,
None,25,yellow,0,8,8,8,0,12,12,12,365.7445480999995,,,,,,,,,,,,,,,365.71888200000103,365.7445480999995,366.7389140999985,024780,001,2024-04-28_13h53.14.781,ArchivoPrueba,2024.1.1,None,2024-04-28 13h53.28.526944 -0500,
None,27,orange,0,8,8,8,0,13,13,13,366.77996110000095,,,,,,,,,,,,,,,366.7404115999998,366.77996110000095,367.7380722000016,024780,001,2024-04-28_13h53.14.781,ArchivoPrueba,2024.1.1,None,2024-04-28 13h53.28.526944 -0500,
None,29,brown,0,8,8,8,0,14,14,14,367.76037279999946,,,,,,,,,,,,,,,367.738889799999,367.76037279999946,368.7373582,024780,001,2024-04-28_13h53.14.781,ArchivoPrueba,2024.1.1,None,2024-04-28 13h53.28.526944 -0500,
None,31,purple,0,8,8,8,0,15,15,15,368.75932439999815,,,,,,,,,,,,,,,368.738623199999,368.75932439999815,369.7072187999984,024780,001,2024-04-28_13h53.14.781,ArchivoPrueba,2024.1.1,None,2024-04-28 13h53.28.526944 -0500,
None,33,green,0,8,8,8,0,16,16,16,369.74214850000135,,,,,,,,,,,,,,,369.7083050000001,369.74214850000135,370.7357368000012,024780,001,2024-04-28_13h53.14.781,ArchivoPrueba,2024.1.1,None,2024-04-28 13h53.28.526944 -0500,
None,35,red,0,8,8,8,0,17,17,17,370.75691709999955,,,,,,,,,,,,,,,370.7369101000004,370.75691709999955,371.735949599999,024780,001,2024-04-28_13h53.14.781,ArchivoPrueba,2024.1.1,None,2024-04-28 13h53.28.526944 -0500,
None,37,white,0,8,8,8,0,18,18,18,371.7565938000007,,,,,,,,,,,,,,,371.73693659999844,371.7565938000007,372.7378729999982,024780,001,2024-04-28_13h53.14.781,ArchivoPrueba,2024.1.1,None,2024-04-28 13h53.28.526944 -0500,
None,39,blue,0,8,8,8,0,19,19,19,372.77272209999865,,,,,,,,,,,,,,,372.7390312999996,372.77272209999865,373.7271311000004,024780,001,2024-04-28_13h53.14.781,ArchivoPrueba,2024.1.1,None,2024-04-28 13h53.28.526944 -0500,
 ¿Recuerda qué es lo primero que ve al llegar al lugar donde realiza sus compras?,17,green,0,8,8,8,,,,,,,,,,,,,,,,,,,,,,,024780,001,2024-04-28_13h53.14.781,ArchivoPrueba,2024.1.1,None,2024-04-28 13h53.28.526944 -0500,
,,,,,,,,,,,373.80296870000166,,,,,,,,,,,,373.7288498000016,373.80296870000166,,,,,,,,,,,,
