PreguntaOff,PreguntaOn,Colors,Prueba.thisRepN,Prueba.thisTrialN,Prueba.thisN,Prueba.thisIndex,RepeticionOn.thisRepN,RepeticionOn.thisTrialN,RepeticionOn.thisN,RepeticionOn.thisIndex,thisRow.t,notes,introducción_3.started,introducción.started,mouse.started,introducción_3.stopped,mouse.x,mouse.y,mouse.leftButton,mouse.midButton,mouse.rightButton,mouse.time,Off.started,CondicionOff.started,Off.stopped,On.started,CondicionOn.started,On.stopped,FInalizacion.started,FinPrueba.started,FInalizacion.stopped,participant,session,date,expName,psychopyVersion,frameRate,expStart,
,,,,,,,,,,,,,0.05664439999964088,0.11776819999977306,0.06634010000016133,2.192036599999483,[-0.15364583333333334],[0.16536458333333334],[1],[0],[0],[2.1243738000011945],,,,,,,,,,179138,001,2024-04-28_12h03.37.591,ArchivoPrueba,2024.1.1,None,2024-04-28 12h03.52.743242 -0500,
¿Recuerda el recorrido que realiza desde su cama hasta la cocina de su residencia?,1,green,0,0,0,0,0,0,0,0,3.2975726000004215,,,,,,,,,,,,2.229096099999879,2.265225199998895,3.206007900000259,3.215746300000319,3.2975726000004215,3.3012380999989546,,,,179138,001,2024-04-28_12h03.37.591,ArchivoPrueba,2024.1.1,None,2024-04-28 12h03.52.743242 -0500,
¿Recuerda el trayecto que hace desde su casa hasta su lugar de trabajo?,3,red,0,0,0,0,0,1,1,1,3.3173062999994727,,,,,,,,,,,,,,,3.3016212999991694,3.3173062999994727,3.405584699999963,,,,179138,001,2024-04-28_12h03.37.591,ArchivoPrueba,2024.1.1,None,2024-04-28 12h03.52.743242 -0500,
¿Recuerda  algún inconveniente que ha  experimentado en el camino de su residencia a su lugar de trabajo?,5,white,0,0,0,0,0,2,2,2,3.4306457999991835,,,,,,,,,,,,,,,3.405860400000165,3.4306457999991835,3.5060458999996627,,,,179138,001,2024-04-28_12h03.37.591,ArchivoPrueba,2024.1.1,None,2024-04-28 12h03.52.743242 -0500,
¿Recuerda si hay algún lugar u objeto en su camino hacia el trabajo que le llame la atención?,7,blue,0,0,0,0,0,3,3,3,3.530631199999334,,,,,,,,,,,,,,,3.5064045999988593,3.530631199999334,3.6054726999991544,,,,179138,001,2024-04-28_12h03.37.591,ArchivoPrueba,2024.1.1,None,2024-04-28 12h03.52.743242 -0500,
" ¿Recuerda el recorrido desde la entrada de su lugar de trabajo hasta su oficina, donde realiza sus funciones?",9,yellow,0,0,0,0,0,4,4,4,3.630536499998925,,,,,,,,,,,,,,,3.6057856999996147,3.630536499998925,3.705338899999333,,,,179138,001,2024-04-28_12h03.37.591,ArchivoPrueba,2024.1.1,None,2024-04-28 12h03.52.743242 -0500,
¿Recuerda alguna actividad que realice durante los viajes de regreso a casa desde el trabajo para relajarse?,11,orange,0,0,0,0,0,5,5,5,3.732131999999183,,,,,,,,,,,,,,,3.7057095000000118,3.732131999999183,3.8049804999991466,,,,179138,001,2024-04-28_12h03.37.591,ArchivoPrueba,2024.1.1,None,2024-04-28 12h03.52.743242 -0500,
¿Recuerda el trayecto que realiza desde su casa hasta el lugar donde realiza sus compras?,13,brown,0,0,0,0,0,6,6,6,3.832147699999041,,,,,,,,,,,,,,,3.8052766999990126,3.832147699999041,3.90490569999929,,,,179138,001,2024-04-28_12h03.37.591,ArchivoPrueba,2024.1.1,None,2024-04-28 12h03.52.743242 -0500,
¿Recuerda alguna situación divertida o interesante que haya experimentado durante el recorrido hacia el lugar de compras?,15,purple,0,0,0,0,0,7,7,7,3.932096900000033,,,,,,,,,,,,,,,3.9051968999992823,3.932096900000033,4.005662999999913,,,,179138,001,2024-04-28_12h03.37.591,ArchivoPrueba,2024.1.1,None,2024-04-28 12h03.52.743242 -0500,
 ¿Recuerda qué es lo primero que ve al llegar al lugar donde realiza sus compras?,17,green,0,0,0,0,0,8,8,8,4.031254100000297,,,,,,,,,,,,,,,4.00597899999957,4.031254100000297,4.104817899999034,,,,179138,001,2024-04-28_12h03.37.591,ArchivoPrueba,2024.1.1,None,2024-04-28 12h03.52.743242 -0500,
¿Recuerda el recorrido desde su residencia hasta el centro de resonancia magnética?,19,red,0,0,0,0,0,9,9,9,4.131618100000196,,,,,,,,,,,,,,,4.1051511999994545,4.131618100000196,4.205250799999703,,,,179138,001,2024-04-28_12h03.37.591,ArchivoPrueba,2024.1.1,None,2024-04-28 12h03.52.743242 -0500,
None,21,white,0,0,0,0,0,10,10,10,4.247021799999857,,,,,,,,,,,,,,,4.20553579999978,4.247021799999857,4.304882000000362,,,,179138,001,2024-04-28_12h03.37.591,ArchivoPrueba,2024.1.1,None,2024-04-28 12h03.52.743242 -0500,
None,23,blue,0,0,0,0,0,11,11,11,4.331625400000121,,,,,,,,,,,,,,,4.305173599999762,4.331625400000121,4.404542299998866,,,,179138,001,2024-04-28_12h03.37.591,ArchivoPrueba,2024.1.1,None,2024-04-28 12h03.52.743242 -0500,
None,25,yellow,0,0,0,0,0,12,12,12,4.43139390000033,,,,,,,,,,,,,,,4.404871099999582,4.43139390000033,4.504573500000333,,,,179138,001,2024-04-28_12h03.37.591,ArchivoPrueba,2024.1.1,None,2024-04-28 12h03.52.743242 -0500,
None,27,orange,0,0,0,0,0,13,13,13,4.531037400000059,,,,,,,,,,,,,,,4.504848399999901,4.531037400000059,4.604573700000401,,,,179138,001,2024-04-28_12h03.37.591,ArchivoPrueba,2024.1.1,None,2024-04-28 12h03.52.743242 -0500,
None,29,brown,0,0,0,0,0,14,14,14,4.631034699999873,,,,,,,,,,,,,,,4.60500409999986,4.631034699999873,4.704498299999614,,,,179138,001,2024-04-28_12h03.37.591,ArchivoPrueba,2024.1.1,None,2024-04-28 12h03.52.743242 -0500,
None,31,purple,0,0,0,0,0,15,15,15,4.731059699999605,,,,,,,,,,,,,,,4.704795599998761,4.731059699999605,4.8045220999993035,,,,179138,001,2024-04-28_12h03.37.591,ArchivoPrueba,2024.1.1,None,2024-04-28 12h03.52.743242 -0500,
None,33,green,0,0,0,0,0,16,16,16,4.830975999999282,,,,,,,,,,,,,,,4.804795199999717,4.830975999999282,4.903975100000025,,,,179138,001,2024-04-28_12h03.37.591,ArchivoPrueba,2024.1.1,None,2024-04-28 12h03.52.743242 -0500,
None,35,red,0,0,0,0,0,17,17,17,4.930877900000269,,,,,,,,,,,,,,,4.904360700000325,4.930877900000269,5.0046650000003865,,,,179138,001,2024-04-28_12h03.37.591,ArchivoPrueba,2024.1.1,None,2024-04-28 12h03.52.743242 -0500,
None,37,white,0,0,0,0,0,18,18,18,5.030886000000464,,,,,,,,,,,,,,,5.004944599999362,5.030886000000464,5.103942399999141,,,,179138,001,2024-04-28_12h03.37.591,ArchivoPrueba,2024.1.1,None,2024-04-28 12h03.52.743242 -0500,
None,39,blue,0,0,0,0,0,19,19,19,5.130966799999442,,,,,,,,,,,,,,,5.1043293999991874,5.130966799999442,5.204237199999625,,,,179138,001,2024-04-28_12h03.37.591,ArchivoPrueba,2024.1.1,None,2024-04-28 12h03.52.743242 -0500,
¿Recuerda el recorrido que realiza desde su cama hasta la cocina de su residencia?,1,green,0,0,0,0,,,,,,,,,,,,,,,,,,,,,,,,,,179138,001,2024-04-28_12h03.37.591,ArchivoPrueba,2024.1.1,None,2024-04-28 12h03.52.743242 -0500,
¿Recuerda el recorrido que realiza desde su cama hasta la cocina de su residencia?,1,green,0,1,1,1,0,0,0,0,6.229693299999781,,,,,,,,,,,,5.204597699999795,5.229191000000355,6.2030730999995285,6.2128097000004345,6.229693299999781,6.3029785999988235,,,,179138,001,2024-04-28_12h03.37.591,ArchivoPrueba,2024.1.1,None,2024-04-28 12h03.52.743242 -0500,
¿Recuerda el trayecto que hace desde su casa hasta su lugar de trabajo?,3,red,0,1,1,1,0,1,1,1,6.329453500000454,,,,,,,,,,,,,,,6.303285699999833,6.329453500000454,6.403866200000266,,,,179138,001,2024-04-28_12h03.37.591,ArchivoPrueba,2024.1.1,None,2024-04-28 12h03.52.743242 -0500,
¿Recuerda  algún inconveniente que ha  experimentado en el camino de su residencia a su lugar de trabajo?,5,white,0,1,1,1,0,2,2,2,6.429308099999616,,,,,,,,,,,,,,,6.40415529999882,6.429308099999616,6.50311529999999,,,,179138,001,2024-04-28_12h03.37.591,ArchivoPrueba,2024.1.1,None,2024-04-28 12h03.52.743242 -0500,
¿Recuerda si hay algún lugar u objeto en su camino hacia el trabajo que le llame la atención?,7,blue,0,1,1,1,0,3,3,3,6.529324400000405,,,,,,,,,,,,,,,6.503439399999479,6.529324400000405,6.603815200000099,,,,179138,001,2024-04-28_12h03.37.591,ArchivoPrueba,2024.1.1,None,2024-04-28 12h03.52.743242 -0500,
" ¿Recuerda el recorrido desde la entrada de su lugar de trabajo hasta su oficina, donde realiza sus funciones?",9,yellow,0,1,1,1,0,4,4,4,6.629096200000276,,,,,,,,,,,,,,,6.604207000000315,6.629096200000276,6.702615000000151,,,,179138,001,2024-04-28_12h03.37.591,ArchivoPrueba,2024.1.1,None,2024-04-28 12h03.52.743242 -0500,
¿Recuerda alguna actividad que realice durante los viajes de regreso a casa desde el trabajo para relajarse?,11,orange,0,1,1,1,0,5,5,5,6.729335699999865,,,,,,,,,,,,,,,6.702928299999257,6.729335699999865,6.8024549999990995,,,,179138,001,2024-04-28_12h03.37.591,ArchivoPrueba,2024.1.1,None,2024-04-28 12h03.52.743242 -0500,
¿Recuerda el trayecto que realiza desde su casa hasta el lugar donde realiza sus compras?,13,brown,0,1,1,1,0,6,6,6,6.829663900000014,,,,,,,,,,,,,,,6.802857599999697,6.829663900000014,6.90262409999923,,,,179138,001,2024-04-28_12h03.37.591,ArchivoPrueba,2024.1.1,None,2024-04-28 12h03.52.743242 -0500,
¿Recuerda alguna situación divertida o interesante que haya experimentado durante el recorrido hacia el lugar de compras?,15,purple,0,1,1,1,0,7,7,7,6.929338500000085,,,,,,,,,,,,,,,6.902919299998757,6.929338500000085,7.0029116999994585,,,,179138,001,2024-04-28_12h03.37.591,ArchivoPrueba,2024.1.1,None,2024-04-28 12h03.52.743242 -0500,
 ¿Recuerda qué es lo primero que ve al llegar al lugar donde realiza sus compras?,17,green,0,1,1,1,0,8,8,8,7.029236500000479,,,,,,,,,,,,,,,7.003207499999917,7.029236500000479,7.102008500000011,,,,179138,001,2024-04-28_12h03.37.591,ArchivoPrueba,2024.1.1,None,2024-04-28 12h03.52.743242 -0500,
¿Recuerda el recorrido desde su residencia hasta el centro de resonancia magnética?,19,red,0,1,1,1,0,9,9,9,7.129112200000236,,,,,,,,,,,,,,,7.102306699998735,7.129112200000236,7.202058200000465,,,,179138,001,2024-04-28_12h03.37.591,ArchivoPrueba,2024.1.1,None,2024-04-28 12h03.52.743242 -0500,
None,21,white,0,1,1,1,0,10,10,10,7.228989999999612,,,,,,,,,,,,,,,7.202384099999108,7.228989999999612,7.302788799999689,,,,179138,001,2024-04-28_12h03.37.591,ArchivoPrueba,2024.1.1,None,2024-04-28 12h03.52.743242 -0500,
None,23,blue,0,1,1,1,0,11,11,11,7.328828300000168,,,,,,,,,,,,,,,7.303088700000444,7.328828300000168,7.402127499999551,,,,179138,001,2024-04-28_12h03.37.591,ArchivoPrueba,2024.1.1,None,2024-04-28 12h03.52.743242 -0500,
None,25,yellow,0,1,1,1,0,12,12,12,7.428863199998887,,,,,,,,,,,,,,,7.4023994999988645,7.428863199998887,7.5021285000002536,,,,179138,001,2024-04-28_12h03.37.591,ArchivoPrueba,2024.1.1,None,2024-04-28 12h03.52.743242 -0500,
None,27,orange,0,1,1,1,0,13,13,13,7.528686999999991,,,,,,,,,,,,,,,7.502402000000075,7.528686999999991,7.601967900000091,,,,179138,001,2024-04-28_12h03.37.591,ArchivoPrueba,2024.1.1,None,2024-04-28 12h03.52.743242 -0500,
None,29,brown,0,1,1,1,0,14,14,14,7.6287023999993835,,,,,,,,,,,,,,,7.602239399999235,7.6287023999993835,7.7021384999989095,,,,179138,001,2024-04-28_12h03.37.591,ArchivoPrueba,2024.1.1,None,2024-04-28 12h03.52.743242 -0500,
None,31,purple,0,1,1,1,0,15,15,15,7.728516799999852,,,,,,,,,,,,,,,7.702412799999365,7.728516799999852,7.8018751999989036,,,,179138,001,2024-04-28_12h03.37.591,ArchivoPrueba,2024.1.1,None,2024-04-28 12h03.52.743242 -0500,
None,33,green,0,1,1,1,0,16,16,16,7.828591399998913,,,,,,,,,,,,,,,7.8021477999991475,7.828591399998913,7.901614499998686,,,,179138,001,2024-04-28_12h03.37.591,ArchivoPrueba,2024.1.1,None,2024-04-28 12h03.52.743242 -0500,
None,35,red,0,1,1,1,0,17,17,17,7.928680299999542,,,,,,,,,,,,,,,7.901945599998726,7.928680299999542,8.00200120000045,,,,179138,001,2024-04-28_12h03.37.591,ArchivoPrueba,2024.1.1,None,2024-04-28 12h03.52.743242 -0500,
None,37,white,0,1,1,1,0,18,18,18,8.028383999999278,,,,,,,,,,,,,,,8.002299099998709,8.028383999999278,8.102149000000281,,,,179138,001,2024-04-28_12h03.37.591,ArchivoPrueba,2024.1.1,None,2024-04-28 12h03.52.743242 -0500,
None,39,blue,0,1,1,1,0,19,19,19,8.128283099998953,,,,,,,,,,,,,,,8.102445599999555,8.128283099998953,8.201300900000206,,,,179138,001,2024-04-28_12h03.37.591,ArchivoPrueba,2024.1.1,None,2024-04-28 12h03.52.743242 -0500,
¿Recuerda el trayecto que hace desde su casa hasta su lugar de trabajo?,3,red,0,1,1,1,,,,,,,,,,,,,,,,,,,,,,,,,,179138,001,2024-04-28_12h03.37.591,ArchivoPrueba,2024.1.1,None,2024-04-28 12h03.52.743242 -0500,
¿Recuerda el recorrido que realiza desde su cama hasta la cocina de su residencia?,1,green,0,2,2,2,0,0,0,0,9.22726799999873,,,,,,,,,,,,8.201663899999403,8.226724500000273,9.200648699999874,9.210886299999402,9.22726799999873,9.317354900000282,,,,179138,001,2024-04-28_12h03.37.591,ArchivoPrueba,2024.1.1,None,2024-04-28 12h03.52.743242 -0500,
¿Recuerda el trayecto que hace desde su casa hasta su lugar de trabajo?,3,red,0,2,2,2,0,1,1,1,9.34376119999979,,,,,,,,,,,,,,,9.317692499998884,9.34376119999979,9.417665599999964,,,,179138,001,2024-04-28_12h03.37.591,ArchivoPrueba,2024.1.1,None,2024-04-28 12h03.52.743242 -0500,
¿Recuerda  algún inconveniente que ha  experimentado en el camino de su residencia a su lugar de trabajo?,5,white,0,2,2,2,0,2,2,2,9.443527299999914,,,,,,,,,,,,,,,9.417989800000214,9.443527299999914,9.517317899999398,,,,179138,001,2024-04-28_12h03.37.591,ArchivoPrueba,2024.1.1,None,2024-04-28 12h03.52.743242 -0500,
¿Recuerda si hay algún lugar u objeto en su camino hacia el trabajo que le llame la atención?,7,blue,0,2,2,2,0,3,3,3,9.543641999998727,,,,,,,,,,,,,,,9.517685900000288,9.543641999998727,9.617120999999315,,,,179138,001,2024-04-28_12h03.37.591,ArchivoPrueba,2024.1.1,None,2024-04-28 12h03.52.743242 -0500,
" ¿Recuerda el recorrido desde la entrada de su lugar de trabajo hasta su oficina, donde realiza sus funciones?",9,yellow,0,2,2,2,0,4,4,4,9.643589999999676,,,,,,,,,,,,,,,9.617392099999051,9.643589999999676,9.71650950000003,,,,179138,001,2024-04-28_12h03.37.591,ArchivoPrueba,2024.1.1,None,2024-04-28 12h03.52.743242 -0500,
¿Recuerda alguna actividad que realice durante los viajes de regreso a casa desde el trabajo para relajarse?,11,orange,0,2,2,2,0,5,5,5,9.74342869999964,,,,,,,,,,,,,,,9.716904599999907,9.74342869999964,9.816910100000314,,,,179138,001,2024-04-28_12h03.37.591,ArchivoPrueba,2024.1.1,None,2024-04-28 12h03.52.743242 -0500,
¿Recuerda el trayecto que realiza desde su casa hasta el lugar donde realiza sus compras?,13,brown,0,2,2,2,0,6,6,6,9.843132300000434,,,,,,,,,,,,,,,9.817267299999003,9.843132300000434,9.917011499999717,,,,179138,001,2024-04-28_12h03.37.591,ArchivoPrueba,2024.1.1,None,2024-04-28 12h03.52.743242 -0500,
¿Recuerda alguna situación divertida o interesante que haya experimentado durante el recorrido hacia el lugar de compras?,15,purple,0,2,2,2,0,7,7,7,9.943316900000355,,,,,,,,,,,,,,,9.91735510000035,9.943316900000355,10.017644100000325,,,,179138,001,2024-04-28_12h03.37.591,ArchivoPrueba,2024.1.1,None,2024-04-28 12h03.52.743242 -0500,
 ¿Recuerda qué es lo primero que ve al llegar al lugar donde realiza sus compras?,17,green,0,2,2,2,0,8,8,8,10.043153200000233,,,,,,,,,,,,,,,10.017957699999897,10.043153200000233,10.11655989999963,,,,179138,001,2024-04-28_12h03.37.591,ArchivoPrueba,2024.1.1,None,2024-04-28 12h03.52.743242 -0500,
¿Recuerda el recorrido desde su residencia hasta el centro de resonancia magnética?,19,red,0,2,2,2,0,9,9,9,10.143114499998774,,,,,,,,,,,,,,,10.11683869999979,10.143114499998774,10.216154100000495,,,,179138,001,2024-04-28_12h03.37.591,ArchivoPrueba,2024.1.1,None,2024-04-28 12h03.52.743242 -0500,
None,21,white,0,2,2,2,0,10,10,10,10.24319309999919,,,,,,,,,,,,,,,10.216513499999564,10.24319309999919,10.316051099998731,,,,179138,001,2024-04-28_12h03.37.591,ArchivoPrueba,2024.1.1,None,2024-04-28 12h03.52.743242 -0500,
None,23,blue,0,2,2,2,0,11,11,11,10.342902500000491,,,,,,,,,,,,,,,10.316450899999836,10.342902500000491,10.415921499999968,,,,179138,001,2024-04-28_12h03.37.591,ArchivoPrueba,2024.1.1,None,2024-04-28 12h03.52.743242 -0500,
None,25,yellow,0,2,2,2,0,12,12,12,10.442815399999745,,,,,,,,,,,,,,,10.416295600000012,10.442815399999745,10.515648099999453,,,,179138,001,2024-04-28_12h03.37.591,ArchivoPrueba,2024.1.1,None,2024-04-28 12h03.52.743242 -0500,
None,27,orange,0,2,2,2,0,13,13,13,10.542852599999605,,,,,,,,,,,,,,,10.515951699999277,10.542852599999605,10.615805100000216,,,,179138,001,2024-04-28_12h03.37.591,ArchivoPrueba,2024.1.1,None,2024-04-28 12h03.52.743242 -0500,
None,29,brown,0,2,2,2,0,14,14,14,10.64262090000011,,,,,,,,,,,,,,,10.616109299999152,10.64262090000011,10.715446899999733,,,,179138,001,2024-04-28_12h03.37.591,ArchivoPrueba,2024.1.1,None,2024-04-28 12h03.52.743242 -0500,
None,31,purple,0,2,2,2,0,15,15,15,10.7426446999998,,,,,,,,,,,,,,,10.71572550000019,10.7426446999998,10.815633999998681,,,,179138,001,2024-04-28_12h03.37.591,ArchivoPrueba,2024.1.1,None,2024-04-28 12h03.52.743242 -0500,
None,33,green,0,2,2,2,0,16,16,16,10.842294299998684,,,,,,,,,,,,,,,10.815992599998935,10.842294299998684,10.915859299999283,,,,179138,001,2024-04-28_12h03.37.591,ArchivoPrueba,2024.1.1,None,2024-04-28 12h03.52.743242 -0500,
None,35,red,0,2,2,2,0,17,17,17,10.942482899999959,,,,,,,,,,,,,,,10.916153799998938,10.942482899999959,11.015539500000159,,,,179138,001,2024-04-28_12h03.37.591,ArchivoPrueba,2024.1.1,None,2024-04-28 12h03.52.743242 -0500,
None,37,white,0,2,2,2,0,18,18,18,11.042242600000463,,,,,,,,,,,,,,,11.015812199999345,11.042242600000463,11.115905399999974,,,,179138,001,2024-04-28_12h03.37.591,ArchivoPrueba,2024.1.1,None,2024-04-28 12h03.52.743242 -0500,
None,39,blue,0,2,2,2,0,19,19,19,11.142141599999377,,,,,,,,,,,,,,,11.116215899999588,11.142141599999377,11.21541359999901,,,,179138,001,2024-04-28_12h03.37.591,ArchivoPrueba,2024.1.1,None,2024-04-28 12h03.52.743242 -0500,
¿Recuerda  algún inconveniente que ha  experimentado en el camino de su residencia a su lugar de trabajo?,5,white,0,2,2,2,,,,,,,,,,,,,,,,,,,,,,,,,,179138,001,2024-04-28_12h03.37.591,ArchivoPrueba,2024.1.1,None,2024-04-28 12h03.52.743242 -0500,
¿Recuerda el recorrido que realiza desde su cama hasta la cocina de su residencia?,1,green,0,3,3,3,0,0,0,0,12.241652200000317,,,,,,,,,,,,11.215837899999315,11.24069529999906,12.214771699998892,12.224799199999325,12.241652200000317,12.315155500000401,,,,179138,001,2024-04-28_12h03.37.591,ArchivoPrueba,2024.1.1,None,2024-04-28 12h03.52.743242 -0500,
¿Recuerda el trayecto que hace desde su casa hasta su lugar de trabajo?,3,red,0,3,3,3,0,1,1,1,12.34158059999936,,,,,,,,,,,,,,,12.315511299999343,12.34158059999936,12.415010599999732,,,,179138,001,2024-04-28_12h03.37.591,ArchivoPrueba,2024.1.1,None,2024-04-28 12h03.52.743242 -0500,
¿Recuerda  algún inconveniente que ha  experimentado en el camino de su residencia a su lugar de trabajo?,5,white,0,3,3,3,0,2,2,2,12.441191500000059,,,,,,,,,,,,,,,12.415308699999514,12.441191500000059,12.515359199998784,,,,179138,001,2024-04-28_12h03.37.591,ArchivoPrueba,2024.1.1,None,2024-04-28 12h03.52.743242 -0500,
¿Recuerda si hay algún lugar u objeto en su camino hacia el trabajo que le llame la atención?,7,blue,0,3,3,3,0,3,3,3,12.541275899999164,,,,,,,,,,,,,,,12.515698199998951,12.541275899999164,12.628720099999555,,,,179138,001,2024-04-28_12h03.37.591,ArchivoPrueba,2024.1.1,None,2024-04-28 12h03.52.743242 -0500,
" ¿Recuerda el recorrido desde la entrada de su lugar de trabajo hasta su oficina, donde realiza sus funciones?",9,yellow,0,3,3,3,0,4,4,4,12.65755849999914,,,,,,,,,,,,,,,12.629217899999276,12.65755849999914,12.714219800000137,,,,179138,001,2024-04-28_12h03.37.591,ArchivoPrueba,2024.1.1,None,2024-04-28 12h03.52.743242 -0500,
¿Recuerda alguna actividad que realice durante los viajes de regreso a casa desde el trabajo para relajarse?,11,orange,0,3,3,3,0,5,5,5,12.74123039999904,,,,,,,,,,,,,,,12.714565099999163,12.74123039999904,12.81461390000004,,,,179138,001,2024-04-28_12h03.37.591,ArchivoPrueba,2024.1.1,None,2024-04-28 12h03.52.743242 -0500,
¿Recuerda el trayecto que realiza desde su casa hasta el lugar donde realiza sus compras?,13,brown,0,3,3,3,0,6,6,6,12.84089060000042,,,,,,,,,,,,,,,12.814924799999062,12.84089060000042,12.91409349999958,,,,179138,001,2024-04-28_12h03.37.591,ArchivoPrueba,2024.1.1,None,2024-04-28 12h03.52.743242 -0500,
¿Recuerda alguna situación divertida o interesante que haya experimentado durante el recorrido hacia el lugar de compras?,15,purple,0,3,3,3,0,7,7,7,12.940684400000464,,,,,,,,,,,,,,,12.914393299999574,12.940684400000464,13.013736099999733,,,,179138,001,2024-04-28_12h03.37.591,ArchivoPrueba,2024.1.1,None,2024-04-28 12h03.52.743242 -0500,
 ¿Recuerda qué es lo primero que ve al llegar al lugar donde realiza sus compras?,17,green,0,3,3,3,0,8,8,8,13.04046229999949,,,,,,,,,,,,,,,13.014027199998964,13.04046229999949,13.113705800000389,,,,179138,001,2024-04-28_12h03.37.591,ArchivoPrueba,2024.1.1,None,2024-04-28 12h03.52.743242 -0500,
¿Recuerda el recorrido desde su residencia hasta el centro de resonancia magnética?,19,red,0,3,3,3,0,9,9,9,13.140439799999513,,,,,,,,,,,,,,,13.114017099998819,13.140439799999513,13.213948200000232,,,,179138,001,2024-04-28_12h03.37.591,ArchivoPrueba,2024.1.1,None,2024-04-28 12h03.52.743242 -0500,
None,21,white,0,3,3,3,0,10,10,10,13.240165600000182,,,,,,,,,,,,,,,13.2143245999996,13.240165600000182,13.313204000000042,,,,179138,001,2024-04-28_12h03.37.591,ArchivoPrueba,2024.1.1,None,2024-04-28 12h03.52.743242 -0500,
None,23,blue,0,3,3,3,0,11,11,11,13.340138899999147,,,,,,,,,,,,,,,13.313542099998813,13.340138899999147,13.413905899999008,,,,179138,001,2024-04-28_12h03.37.591,ArchivoPrueba,2024.1.1,None,2024-04-28 12h03.52.743242 -0500,
None,25,yellow,0,3,3,3,0,12,12,12,13.440015700000004,,,,,,,,,,,,,,,13.414272799998798,13.440015700000004,13.513184499999625,,,,179138,001,2024-04-28_12h03.37.591,ArchivoPrueba,2024.1.1,None,2024-04-28 12h03.52.743242 -0500,
None,27,orange,0,3,3,3,0,13,13,13,13.54019960000005,,,,,,,,,,,,,,,13.51351109999996,13.54019960000005,13.613342999999077,,,,179138,001,2024-04-28_12h03.37.591,ArchivoPrueba,2024.1.1,None,2024-04-28 12h03.52.743242 -0500,
None,29,brown,0,3,3,3,0,14,14,14,13.639935600000172,,,,,,,,,,,,,,,13.61361659999966,13.639935600000172,13.713255999999092,,,,179138,001,2024-04-28_12h03.37.591,ArchivoPrueba,2024.1.1,None,2024-04-28 12h03.52.743242 -0500,
None,31,purple,0,3,3,3,0,15,15,15,13.740168000000267,,,,,,,,,,,,,,,13.713570099998833,13.740168000000267,13.812912899998992,,,,179138,001,2024-04-28_12h03.37.591,ArchivoPrueba,2024.1.1,None,2024-04-28 12h03.52.743242 -0500,
None,33,green,0,3,3,3,0,16,16,16,13.839988599998833,,,,,,,,,,,,,,,13.813294899999164,13.839988599998833,13.91362300000037,,,,179138,001,2024-04-28_12h03.37.591,ArchivoPrueba,2024.1.1,None,2024-04-28 12h03.52.743242 -0500,
None,35,red,0,3,3,3,0,17,17,17,13.939783499999976,,,,,,,,,,,,,,,13.913925400000153,13.939783499999976,14.012830800000302,,,,179138,001,2024-04-28_12h03.37.591,ArchivoPrueba,2024.1.1,None,2024-04-28 12h03.52.743242 -0500,
None,37,white,0,3,3,3,0,18,18,18,14.039822400000048,,,,,,,,,,,,,,,14.013185499999963,14.039822400000048,14.11245389999931,,,,179138,001,2024-04-28_12h03.37.591,ArchivoPrueba,2024.1.1,None,2024-04-28 12h03.52.743242 -0500,
None,39,blue,0,3,3,3,0,19,19,19,14.139777700000195,,,,,,,,,,,,,,,14.112728099999003,14.139777700000195,14.212537999999768,,,,179138,001,2024-04-28_12h03.37.591,ArchivoPrueba,2024.1.1,None,2024-04-28 12h03.52.743242 -0500,
¿Recuerda si hay algún lugar u objeto en su camino hacia el trabajo que le llame la atención?,7,blue,0,3,3,3,,,,,,,,,,,,,,,,,,,,,,,,,,179138,001,2024-04-28_12h03.37.591,ArchivoPrueba,2024.1.1,None,2024-04-28 12h03.52.743242 -0500,
¿Recuerda el recorrido que realiza desde su cama hasta la cocina de su residencia?,1,green,0,4,4,4,0,0,0,0,15.272492099998999,,,,,,,,,,,,14.212877899999512,14.238052200000311,15.227421399999002,15.247805099999823,15.272492099998999,15.327156999999715,,,,179138,001,2024-04-28_12h03.37.591,ArchivoPrueba,2024.1.1,None,2024-04-28 12h03.52.743242 -0500,
¿Recuerda el trayecto que hace desde su casa hasta su lugar de trabajo?,3,red,0,4,4,4,0,1,1,1,15.355311100000108,,,,,,,,,,,,,,,15.327703900000415,15.355311100000108,15.41023949999908,,,,179138,001,2024-04-28_12h03.37.591,ArchivoPrueba,2024.1.1,None,2024-04-28 12h03.52.743242 -0500,
¿Recuerda  algún inconveniente que ha  experimentado en el camino de su residencia a su lugar de trabajo?,5,white,0,4,4,4,0,2,2,2,15.438043199999811,,,,,,,,,,,,,,,15.410578099999839,15.438043199999811,15.515232699999615,,,,179138,001,2024-04-28_12h03.37.591,ArchivoPrueba,2024.1.1,None,2024-04-28 12h03.52.743242 -0500,
¿Recuerda si hay algún lugar u objeto en su camino hacia el trabajo que le llame la atención?,7,blue,0,4,4,4,0,3,3,3,15.538127899999381,,,,,,,,,,,,,,,15.51571100000001,15.538127899999381,15.609230199999729,,,,179138,001,2024-04-28_12h03.37.591,ArchivoPrueba,2024.1.1,None,2024-04-28 12h03.52.743242 -0500,
" ¿Recuerda el recorrido desde la entrada de su lugar de trabajo hasta su oficina, donde realiza sus funciones?",9,yellow,0,4,4,4,0,4,4,4,15.63811910000004,,,,,,,,,,,,,,,15.609529100000145,15.63811910000004,15.710716399999,,,,179138,001,2024-04-28_12h03.37.591,ArchivoPrueba,2024.1.1,None,2024-04-28 12h03.52.743242 -0500,
¿Recuerda alguna actividad que realice durante los viajes de regreso a casa desde el trabajo para relajarse?,11,orange,0,4,4,4,0,5,5,5,15.737952399998903,,,,,,,,,,,,,,,15.711012599998867,15.737952399998903,15.812032599998929,,,,179138,001,2024-04-28_12h03.37.591,ArchivoPrueba,2024.1.1,None,2024-04-28 12h03.52.743242 -0500,
¿Recuerda el trayecto que realiza desde su casa hasta el lugar donde realiza sus compras?,13,brown,0,4,4,4,0,6,6,6,15.83821689999968,,,,,,,,,,,,,,,15.812528700000257,15.83821689999968,15.911305199999333,,,,179138,001,2024-04-28_12h03.37.591,ArchivoPrueba,2024.1.1,None,2024-04-28 12h03.52.743242 -0500,
¿Recuerda alguna situación divertida o interesante que haya experimentado durante el recorrido hacia el lugar de compras?,15,purple,0,4,4,4,0,7,7,7,15.937976299999718,,,,,,,,,,,,,,,15.91159659999903,15.937976299999718,16.01153820000036,,,,179138,001,2024-04-28_12h03.37.591,ArchivoPrueba,2024.1.1,None,2024-04-28 12h03.52.743242 -0500,
 ¿Recuerda qué es lo primero que ve al llegar al lugar donde realiza sus compras?,17,green,0,4,4,4,0,8,8,8,16.038283099998807,,,,,,,,,,,,,,,16.01183839999976,16.038283099998807,16.1116791000004,,,,179138,001,2024-04-28_12h03.37.591,ArchivoPrueba,2024.1.1,None,2024-04-28 12h03.52.743242 -0500,
¿Recuerda el recorrido desde su residencia hasta el centro de resonancia magnética?,19,red,0,4,4,4,0,9,9,9,16.1384180999994,,,,,,,,,,,,,,,16.111975800000437,16.1384180999994,16.210843799999566,,,,179138,001,2024-04-28_12h03.37.591,ArchivoPrueba,2024.1.1,None,2024-04-28 12h03.52.743242 -0500,
None,21,white,0,4,4,4,0,10,10,10,16.237872399999105,,,,,,,,,,,,,,,16.211210699999356,16.237872399999105,16.310774800000218,,,,179138,001,2024-04-28_12h03.37.591,ArchivoPrueba,2024.1.1,None,2024-04-28 12h03.52.743242 -0500,
None,23,blue,0,4,4,4,0,11,11,11,16.33778749999874,,,,,,,,,,,,,,,16.31111769999916,16.33778749999874,16.41403199999877,,,,179138,001,2024-04-28_12h03.37.591,ArchivoPrueba,2024.1.1,None,2024-04-28 12h03.52.743242 -0500,
None,25,yellow,0,4,4,4,0,12,12,12,16.437231199999587,,,,,,,,,,,,,,,16.414595799999006,16.437231199999587,16.51138069999979,,,,179138,001,2024-04-28_12h03.37.591,ArchivoPrueba,2024.1.1,None,2024-04-28 12h03.52.743242 -0500,
None,27,orange,0,4,4,4,0,13,13,13,16.537254299999404,,,,,,,,,,,,,,,16.51170749999983,16.537254299999404,16.610498300000472,,,,179138,001,2024-04-28_12h03.37.591,ArchivoPrueba,2024.1.1,None,2024-04-28 12h03.52.743242 -0500,
None,29,brown,0,4,4,4,0,14,14,14,16.637218500000017,,,,,,,,,,,,,,,16.61082030000034,16.637218500000017,16.710858200000075,,,,179138,001,2024-04-28_12h03.37.591,ArchivoPrueba,2024.1.1,None,2024-04-28 12h03.52.743242 -0500,
None,31,purple,0,4,4,4,0,15,15,15,16.737172400000418,,,,,,,,,,,,,,,16.711204399998678,16.737172400000418,16.81160319999981,,,,179138,001,2024-04-28_12h03.37.591,ArchivoPrueba,2024.1.1,None,2024-04-28 12h03.52.743242 -0500,
None,33,green,0,4,4,4,0,16,16,16,16.837367399999494,,,,,,,,,,,,,,,16.811912099999972,16.837367399999494,16.91051150000021,,,,179138,001,2024-04-28_12h03.37.591,ArchivoPrueba,2024.1.1,None,2024-04-28 12h03.52.743242 -0500,
None,35,red,0,4,4,4,0,17,17,17,16.936979899999642,,,,,,,,,,,,,,,16.9108056999994,16.936979899999642,17.010564399999566,,,,179138,001,2024-04-28_12h03.37.591,ArchivoPrueba,2024.1.1,None,2024-04-28 12h03.52.743242 -0500,
None,37,white,0,4,4,4,0,18,18,18,17.036785599999348,,,,,,,,,,,,,,,17.010836600000403,17.036785599999348,17.11108779999995,,,,179138,001,2024-04-28_12h03.37.591,ArchivoPrueba,2024.1.1,None,2024-04-28 12h03.52.743242 -0500,
None,39,blue,0,4,4,4,0,19,19,19,17.136915499999304,,,,,,,,,,,,,,,17.111437300000034,17.136915499999304,17.210665499998868,,,,179138,001,2024-04-28_12h03.37.591,ArchivoPrueba,2024.1.1,None,2024-04-28 12h03.52.743242 -0500,
" ¿Recuerda el recorrido desde la entrada de su lugar de trabajo hasta su oficina, donde realiza sus funciones?",9,yellow,0,4,4,4,,,,,,,,,,,,,,,,,,,,,,,,,,179138,001,2024-04-28_12h03.37.591,ArchivoPrueba,2024.1.1,None,2024-04-28 12h03.52.743242 -0500,
¿Recuerda el recorrido que realiza desde su cama hasta la cocina de su residencia?,1,green,0,5,5,5,0,0,0,0,18.252108900000167,,,,,,,,,,,,17.21103409999887,17.237105500000325,18.222891399998844,18.238126000000193,18.252108900000167,18.309283999999025,,,,179138,001,2024-04-28_12h03.37.591,ArchivoPrueba,2024.1.1,None,2024-04-28 12h03.52.743242 -0500,
¿Recuerda el trayecto que hace desde su casa hasta su lugar de trabajo?,3,red,0,5,5,5,0,1,1,1,18.33593269999983,,,,,,,,,,,,,,,18.30959780000012,18.33593269999983,18.409797000000253,,,,179138,001,2024-04-28_12h03.37.591,ArchivoPrueba,2024.1.1,None,2024-04-28 12h03.52.743242 -0500,
¿Recuerda  algún inconveniente que ha  experimentado en el camino de su residencia a su lugar de trabajo?,5,white,0,5,5,5,0,2,2,2,18.437050499998804,,,,,,,,,,,,,,,18.410404799999014,18.437050499998804,18.51116120000006,,,,179138,001,2024-04-28_12h03.37.591,ArchivoPrueba,2024.1.1,None,2024-04-28 12h03.52.743242 -0500,
¿Recuerda si hay algún lugar u objeto en su camino hacia el trabajo que le llame la atención?,7,blue,0,5,5,5,0,3,3,3,18.5367253000004,,,,,,,,,,,,,,,18.51189709999926,18.5367253000004,18.611800999999105,,,,179138,001,2024-04-28_12h03.37.591,ArchivoPrueba,2024.1.1,None,2024-04-28 12h03.52.743242 -0500,
" ¿Recuerda el recorrido desde la entrada de su lugar de trabajo hasta su oficina, donde realiza sus funciones?",9,yellow,0,5,5,5,0,4,4,4,18.635833000000275,,,,,,,,,,,,,,,18.612738199999512,18.635833000000275,18.726009399999384,,,,179138,001,2024-04-28_12h03.37.591,ArchivoPrueba,2024.1.1,None,2024-04-28 12h03.52.743242 -0500,
¿Recuerda alguna actividad que realice durante los viajes de regreso a casa desde el trabajo para relajarse?,11,orange,0,5,5,5,0,5,5,5,18.75269660000049,,,,,,,,,,,,,,,18.726487899999483,18.75269660000049,18.814195900000414,,,,179138,001,2024-04-28_12h03.37.591,ArchivoPrueba,2024.1.1,None,2024-04-28 12h03.52.743242 -0500,
¿Recuerda el trayecto que realiza desde su casa hasta el lugar donde realiza sus compras?,13,brown,0,5,5,5,0,6,6,6,18.83611529999871,,,,,,,,,,,,,,,18.814683599999626,18.83611529999871,18.925392699999065,,,,179138,001,2024-04-28_12h03.37.591,ArchivoPrueba,2024.1.1,None,2024-04-28 12h03.52.743242 -0500,
¿Recuerda alguna situación divertida o interesante que haya experimentado durante el recorrido hacia el lugar de compras?,15,purple,0,5,5,5,0,7,7,7,18.952038600000378,,,,,,,,,,,,,,,18.92586399999891,18.952038600000378,19.008782599999904,,,,179138,001,2024-04-28_12h03.37.591,ArchivoPrueba,2024.1.1,None,2024-04-28 12h03.52.743242 -0500,
 ¿Recuerda qué es lo primero que ve al llegar al lugar donde realiza sus compras?,17,green,0,5,5,5,0,8,8,8,19.035299799999848,,,,,,,,,,,,,,,19.009276099999624,19.035299799999848,19.11230760000035,,,,179138,001,2024-04-28_12h03.37.591,ArchivoPrueba,2024.1.1,None,2024-04-28 12h03.52.743242 -0500,
¿Recuerda el recorrido desde su residencia hasta el centro de resonancia magnética?,19,red,0,5,5,5,0,9,9,9,19.134885100000247,,,,,,,,,,,,,,,19.11288969999987,19.134885100000247,19.212479800000438,,,,179138,001,2024-04-28_12h03.37.591,ArchivoPrueba,2024.1.1,None,2024-04-28 12h03.52.743242 -0500,
None,21,white,0,5,5,5,0,10,10,10,19.235156599999755,,,,,,,,,,,,,,,19.21312509999916,19.235156599999755,19.31254919999992,,,,179138,001,2024-04-28_12h03.37.591,ArchivoPrueba,2024.1.1,None,2024-04-28 12h03.52.743242 -0500,
None,23,blue,0,5,5,5,0,11,11,11,19.335140799999863,,,,,,,,,,,,,,,19.31309759999931,19.335140799999863,19.411159399998724,,,,179138,001,2024-04-28_12h03.37.591,ArchivoPrueba,2024.1.1,None,2024-04-28 12h03.52.743242 -0500,
None,25,yellow,0,5,5,5,0,12,12,12,19.43494339999961,,,,,,,,,,,,,,,19.41161739999916,19.43494339999961,19.51220959999955,,,,179138,001,2024-04-28_12h03.37.591,ArchivoPrueba,2024.1.1,None,2024-04-28 12h03.52.743242 -0500,
None,27,orange,0,5,5,5,0,13,13,13,19.534873299999163,,,,,,,,,,,,,,,19.51280190000034,19.534873299999163,19.611058499998762,,,,179138,001,2024-04-28_12h03.37.591,ArchivoPrueba,2024.1.1,None,2024-04-28 12h03.52.743242 -0500,
None,29,brown,0,5,5,5,0,14,14,14,19.634605199998987,,,,,,,,,,,,,,,19.61170669999956,19.634605199998987,19.711736699999165,,,,179138,001,2024-04-28_12h03.37.591,ArchivoPrueba,2024.1.1,None,2024-04-28 12h03.52.743242 -0500,
None,31,purple,0,5,5,5,0,15,15,15,19.73476159999882,,,,,,,,,,,,,,,19.712282399999822,19.73476159999882,19.81071139999949,,,,179138,001,2024-04-28_12h03.37.591,ArchivoPrueba,2024.1.1,None,2024-04-28 12h03.52.743242 -0500,
None,33,green,0,5,5,5,0,16,16,16,19.8344004999999,,,,,,,,,,,,,,,19.811208699999042,19.8344004999999,19.910848699999406,,,,179138,001,2024-04-28_12h03.37.591,ArchivoPrueba,2024.1.1,None,2024-04-28 12h03.52.743242 -0500,
None,35,red,0,5,5,5,0,17,17,17,19.93435109999882,,,,,,,,,,,,,,,19.91137179999896,19.93435109999882,20.01132729999881,,,,179138,001,2024-04-28_12h03.37.591,ArchivoPrueba,2024.1.1,None,2024-04-28 12h03.52.743242 -0500,
None,37,white,0,5,5,5,0,18,18,18,20.034209399998872,,,,,,,,,,,,,,,20.01176149999992,20.034209399998872,20.109816500000306,,,,179138,001,2024-04-28_12h03.37.591,ArchivoPrueba,2024.1.1,None,2024-04-28 12h03.52.743242 -0500,
None,39,blue,0,5,5,5,0,19,19,19,20.134517000000415,,,,,,,,,,,,,,,20.110301999999137,20.134517000000415,20.211777900000016,,,,179138,001,2024-04-28_12h03.37.591,ArchivoPrueba,2024.1.1,None,2024-04-28 12h03.52.743242 -0500,
¿Recuerda alguna actividad que realice durante los viajes de regreso a casa desde el trabajo para relajarse?,11,orange,0,5,5,5,,,,,,,,,,,,,,,,,,,,,,,,,,179138,001,2024-04-28_12h03.37.591,ArchivoPrueba,2024.1.1,None,2024-04-28 12h03.52.743242 -0500,
¿Recuerda el recorrido que realiza desde su cama hasta la cocina de su residencia?,1,green,0,6,6,6,0,0,0,0,21.23289549999936,,,,,,,,,,,,20.212406900000133,20.23432419999881,21.20683160000044,21.2173444,21.23289549999936,21.306843399999707,,,,179138,001,2024-04-28_12h03.37.591,ArchivoPrueba,2024.1.1,None,2024-04-28 12h03.52.743242 -0500,
¿Recuerda el trayecto que hace desde su casa hasta su lugar de trabajo?,3,red,0,6,6,6,0,1,1,1,21.333259499999258,,,,,,,,,,,,,,,21.30726109999887,21.333259499999258,21.4069485,,,,179138,001,2024-04-28_12h03.37.591,ArchivoPrueba,2024.1.1,None,2024-04-28 12h03.52.743242 -0500,
¿Recuerda  algún inconveniente que ha  experimentado en el camino de su residencia a su lugar de trabajo?,5,white,0,6,6,6,0,2,2,2,21.43304299999909,,,,,,,,,,,,,,,21.40735180000047,21.43304299999909,21.50622309999926,,,,179138,001,2024-04-28_12h03.37.591,ArchivoPrueba,2024.1.1,None,2024-04-28 12h03.52.743242 -0500,
¿Recuerda si hay algún lugar u objeto en su camino hacia el trabajo que le llame la atención?,7,blue,0,6,6,6,0,3,3,3,21.533065999999963,,,,,,,,,,,,,,,21.506541799999468,21.533065999999963,21.607025899998916,,,,179138,001,2024-04-28_12h03.37.591,ArchivoPrueba,2024.1.1,None,2024-04-28 12h03.52.743242 -0500,
" ¿Recuerda el recorrido desde la entrada de su lugar de trabajo hasta su oficina, donde realiza sus funciones?",9,yellow,0,6,6,6,0,4,4,4,21.633028099999137,,,,,,,,,,,,,,,21.607409199999893,21.633028099999137,21.70625689999906,,,,179138,001,2024-04-28_12h03.37.591,ArchivoPrueba,2024.1.1,None,2024-04-28 12h03.52.743242 -0500,
¿Recuerda alguna actividad que realice durante los viajes de regreso a casa desde el trabajo para relajarse?,11,orange,0,6,6,6,0,5,5,5,21.733257799998682,,,,,,,,,,,,,,,21.706547199999477,21.733257799998682,21.80592979999892,,,,179138,001,2024-04-28_12h03.37.591,ArchivoPrueba,2024.1.1,None,2024-04-28 12h03.52.743242 -0500,
¿Recuerda el trayecto que realiza desde su casa hasta el lugar donde realiza sus compras?,13,brown,0,6,6,6,0,6,6,6,21.83302729999923,,,,,,,,,,,,,,,21.806317099999433,21.83302729999923,21.90573359999871,,,,179138,001,2024-04-28_12h03.37.591,ArchivoPrueba,2024.1.1,None,2024-04-28 12h03.52.743242 -0500,
¿Recuerda alguna situación divertida o interesante que haya experimentado durante el recorrido hacia el lugar de compras?,15,purple,0,6,6,6,0,7,7,7,21.932914499999242,,,,,,,,,,,,,,,21.906052799999088,21.932914499999242,22.005737899999076,,,,179138,001,2024-04-28_12h03.37.591,ArchivoPrueba,2024.1.1,None,2024-04-28 12h03.52.743242 -0500,
 ¿Recuerda qué es lo primero que ve al llegar al lugar donde realiza sus compras?,17,green,0,6,6,6,0,8,8,8,22.03236990000005,,,,,,,,,,,,,,,22.006039500000043,22.03236990000005,22.105884399999923,,,,179138,001,2024-04-28_12h03.37.591,ArchivoPrueba,2024.1.1,None,2024-04-28 12h03.52.743242 -0500,
¿Recuerda el recorrido desde su residencia hasta el centro de resonancia magnética?,19,red,0,6,6,6,0,9,9,9,22.132796199999575,,,,,,,,,,,,,,,22.106349199999386,22.132796199999575,22.2062150999991,,,,179138,001,2024-04-28_12h03.37.591,ArchivoPrueba,2024.1.1,None,2024-04-28 12h03.52.743242 -0500,
None,21,white,0,6,6,6,0,10,10,10,22.23275509999985,,,,,,,,,,,,,,,22.2065077999996,22.23275509999985,22.30554459999985,,,,179138,001,2024-04-28_12h03.37.591,ArchivoPrueba,2024.1.1,None,2024-04-28 12h03.52.743242 -0500,
None,23,blue,0,6,6,6,0,11,11,11,22.332517599999846,,,,,,,,,,,,,,,22.305859699999928,22.332517599999846,22.405454599998848,,,,179138,001,2024-04-28_12h03.37.591,ArchivoPrueba,2024.1.1,None,2024-04-28 12h03.52.743242 -0500,
None,25,yellow,0,6,6,6,0,12,12,12,22.432207599998947,,,,,,,,,,,,,,,22.405779099999563,22.432207599998947,22.505391099999542,,,,179138,001,2024-04-28_12h03.37.591,ArchivoPrueba,2024.1.1,None,2024-04-28 12h03.52.743242 -0500,
None,27,orange,0,6,6,6,0,13,13,13,22.53202020000026,,,,,,,,,,,,,,,22.50569759999962,22.53202020000026,22.605233299998872,,,,179138,001,2024-04-28_12h03.37.591,ArchivoPrueba,2024.1.1,None,2024-04-28 12h03.52.743242 -0500,
None,29,brown,0,6,6,6,0,14,14,14,22.63202359999923,,,,,,,,,,,,,,,22.60556480000014,22.63202359999923,22.705901499999527,,,,179138,001,2024-04-28_12h03.37.591,ArchivoPrueba,2024.1.1,None,2024-04-28 12h03.52.743242 -0500,
None,31,purple,0,6,6,6,0,15,15,15,22.732132600000114,,,,,,,,,,,,,,,22.706232000000455,22.732132600000114,22.80529589999969,,,,179138,001,2024-04-28_12h03.37.591,ArchivoPrueba,2024.1.1,None,2024-04-28 12h03.52.743242 -0500,
None,33,green,0,6,6,6,0,16,16,16,22.83204680000017,,,,,,,,,,,,,,,22.805617099998926,22.83204680000017,22.905198099999325,,,,179138,001,2024-04-28_12h03.37.591,ArchivoPrueba,2024.1.1,None,2024-04-28 12h03.52.743242 -0500,
None,35,red,0,6,6,6,0,17,17,17,22.932147600000462,,,,,,,,,,,,,,,22.905510099999447,22.932147600000462,23.005798299998787,,,,179138,001,2024-04-28_12h03.37.591,ArchivoPrueba,2024.1.1,None,2024-04-28 12h03.52.743242 -0500,
None,37,white,0,6,6,6,0,18,18,18,23.031828600000154,,,,,,,,,,,,,,,23.00613770000018,23.031828600000154,23.105188199999247,,,,179138,001,2024-04-28_12h03.37.591,ArchivoPrueba,2024.1.1,None,2024-04-28 12h03.52.743242 -0500,
None,39,blue,0,6,6,6,0,19,19,19,23.131715899999108,,,,,,,,,,,,,,,23.105501599999116,23.131715899999108,23.20494669999971,,,,179138,001,2024-04-28_12h03.37.591,ArchivoPrueba,2024.1.1,None,2024-04-28 12h03.52.743242 -0500,
¿Recuerda el trayecto que realiza desde su casa hasta el lugar donde realiza sus compras?,13,brown,0,6,6,6,,,,,,,,,,,,,,,,,,,,,,,,,,179138,001,2024-04-28_12h03.37.591,ArchivoPrueba,2024.1.1,None,2024-04-28 12h03.52.743242 -0500,
¿Recuerda el recorrido que realiza desde su cama hasta la cocina de su residencia?,1,green,0,7,7,7,0,0,0,0,24.230793299999277,,,,,,,,,,,,23.205347099999926,23.232032699999763,24.204123499999696,24.21384399999988,24.230793299999277,24.30390729999999,,,,179138,001,2024-04-28_12h03.37.591,ArchivoPrueba,2024.1.1,None,2024-04-28 12h03.52.743242 -0500,
¿Recuerda el trayecto que hace desde su casa hasta su lugar de trabajo?,3,red,0,7,7,7,0,1,1,1,24.330631200000425,,,,,,,,,,,,,,,24.304214699999648,24.330631200000425,24.403752999998687,,,,179138,001,2024-04-28_12h03.37.591,ArchivoPrueba,2024.1.1,None,2024-04-28 12h03.52.743242 -0500,
¿Recuerda  algún inconveniente que ha  experimentado en el camino de su residencia a su lugar de trabajo?,5,white,0,7,7,7,0,2,2,2,24.43069959999957,,,,,,,,,,,,,,,24.404079899999488,24.43069959999957,24.504107299999305,,,,179138,001,2024-04-28_12h03.37.591,ArchivoPrueba,2024.1.1,None,2024-04-28 12h03.52.743242 -0500,
¿Recuerda si hay algún lugar u objeto en su camino hacia el trabajo que le llame la atención?,7,blue,0,7,7,7,0,3,3,3,24.53060319999895,,,,,,,,,,,,,,,24.50440619999972,24.53060319999895,24.603509499998836,,,,179138,001,2024-04-28_12h03.37.591,ArchivoPrueba,2024.1.1,None,2024-04-28 12h03.52.743242 -0500,
" ¿Recuerda el recorrido desde la entrada de su lugar de trabajo hasta su oficina, donde realiza sus funciones?",9,yellow,0,7,7,7,0,4,4,4,24.63054469999952,,,,,,,,,,,,,,,24.603858899999977,24.63054469999952,24.704036299999643,,,,179138,001,2024-04-28_12h03.37.591,ArchivoPrueba,2024.1.1,None,2024-04-28 12h03.52.743242 -0500,
¿Recuerda alguna actividad que realice durante los viajes de regreso a casa desde el trabajo para relajarse?,11,orange,0,7,7,7,0,5,5,5,24.730588999998872,,,,,,,,,,,,,,,24.70430750000014,24.730588999998872,24.80344729999888,,,,179138,001,2024-04-28_12h03.37.591,ArchivoPrueba,2024.1.1,None,2024-04-28 12h03.52.743242 -0500,
¿Recuerda el trayecto que realiza desde su casa hasta el lugar donde realiza sus compras?,13,brown,0,7,7,7,0,6,6,6,24.83053579999978,,,,,,,,,,,,,,,24.803836400000364,24.83053579999978,24.90336009999919,,,,179138,001,2024-04-28_12h03.37.591,ArchivoPrueba,2024.1.1,None,2024-04-28 12h03.52.743242 -0500,
¿Recuerda alguna situación divertida o interesante que haya experimentado durante el recorrido hacia el lugar de compras?,15,purple,0,7,7,7,0,7,7,7,24.930369199999404,,,,,,,,,,,,,,,24.903771399998732,24.930369199999404,25.003756000000067,,,,179138,001,2024-04-28_12h03.37.591,ArchivoPrueba,2024.1.1,None,2024-04-28 12h03.52.743242 -0500,
 ¿Recuerda qué es lo primero que ve al llegar al lugar donde realiza sus compras?,17,green,0,7,7,7,0,8,8,8,25.029917699999714,,,,,,,,,,,,,,,25.00405899999896,25.029917699999714,25.103324300000168,,,,179138,001,2024-04-28_12h03.37.591,ArchivoPrueba,2024.1.1,None,2024-04-28 12h03.52.743242 -0500,
¿Recuerda el recorrido desde su residencia hasta el centro de resonancia magnética?,19,red,0,7,7,7,0,9,9,9,25.1301399999993,,,,,,,,,,,,,,,25.103664999998728,25.1301399999993,25.203063900000416,,,,179138,001,2024-04-28_12h03.37.591,ArchivoPrueba,2024.1.1,None,2024-04-28 12h03.52.743242 -0500,
None,21,white,0,7,7,7,0,10,10,10,25.230123100000128,,,,,,,,,,,,,,,25.20336469999893,25.230123100000128,25.303037100000438,,,,179138,001,2024-04-28_12h03.37.591,ArchivoPrueba,2024.1.1,None,2024-04-28 12h03.52.743242 -0500,
None,23,blue,0,7,7,7,0,11,11,11,25.330239199998687,,,,,,,,,,,,,,,25.303351599999587,25.330239199998687,25.402697499999704,,,,179138,001,2024-04-28_12h03.37.591,ArchivoPrueba,2024.1.1,None,2024-04-28 12h03.52.743242 -0500,
None,25,yellow,0,7,7,7,0,12,12,12,25.429779000000053,,,,,,,,,,,,,,,25.403016299998853,25.429779000000053,25.502924899999925,,,,179138,001,2024-04-28_12h03.37.591,ArchivoPrueba,2024.1.1,None,2024-04-28 12h03.52.743242 -0500,
None,27,orange,0,7,7,7,0,13,13,13,25.52968619999956,,,,,,,,,,,,,,,25.503226099999665,25.52968619999956,25.603158599999006,,,,179138,001,2024-04-28_12h03.37.591,ArchivoPrueba,2024.1.1,None,2024-04-28 12h03.52.743242 -0500,
None,29,brown,0,7,7,7,0,14,14,14,25.629729099999167,,,,,,,,,,,,,,,25.603475399999297,25.629729099999167,25.702828800000134,,,,179138,001,2024-04-28_12h03.37.591,ArchivoPrueba,2024.1.1,None,2024-04-28 12h03.52.743242 -0500,
None,31,purple,0,7,7,7,0,15,15,15,25.729556199999934,,,,,,,,,,,,,,,25.703120899999703,25.729556199999934,25.80273709999892,,,,179138,001,2024-04-28_12h03.37.591,ArchivoPrueba,2024.1.1,None,2024-04-28 12h03.52.743242 -0500,
None,33,green,0,7,7,7,0,16,16,16,25.829617499999586,,,,,,,,,,,,,,,25.803033799998957,25.829617499999586,25.902481400000397,,,,179138,001,2024-04-28_12h03.37.591,ArchivoPrueba,2024.1.1,None,2024-04-28 12h03.52.743242 -0500,
None,35,red,0,7,7,7,0,17,17,17,25.929325499999322,,,,,,,,,,,,,,,25.90285479999875,25.929325499999322,26.002677599999515,,,,179138,001,2024-04-28_12h03.37.591,ArchivoPrueba,2024.1.1,None,2024-04-28 12h03.52.743242 -0500,
None,37,white,0,7,7,7,0,18,18,18,26.029293399999005,,,,,,,,,,,,,,,26.00295559999904,26.029293399999005,26.102285799999663,,,,179138,001,2024-04-28_12h03.37.591,ArchivoPrueba,2024.1.1,None,2024-04-28 12h03.52.743242 -0500,
None,39,blue,0,7,7,7,0,19,19,19,26.129224399999657,,,,,,,,,,,,,,,26.1026382,26.129224399999657,26.202016100000037,,,,179138,001,2024-04-28_12h03.37.591,ArchivoPrueba,2024.1.1,None,2024-04-28 12h03.52.743242 -0500,
¿Recuerda alguna situación divertida o interesante que haya experimentado durante el recorrido hacia el lugar de compras?,15,purple,0,7,7,7,,,,,,,,,,,,,,,,,,,,,,,,,,179138,001,2024-04-28_12h03.37.591,ArchivoPrueba,2024.1.1,None,2024-04-28 12h03.52.743242 -0500,
¿Recuerda el recorrido que realiza desde su cama hasta la cocina de su residencia?,1,green,0,8,8,8,0,0,0,0,27.228452800000014,,,,,,,,,,,,26.202336799999102,26.22755809999944,27.20160169999872,27.211927999998807,27.228452800000014,27.301463499999954,,,,179138,001,2024-04-28_12h03.37.591,ArchivoPrueba,2024.1.1,None,2024-04-28 12h03.52.743242 -0500,
¿Recuerda el trayecto que hace desde su casa hasta su lugar de trabajo?,3,red,0,8,8,8,0,1,1,1,27.328263699999297,,,,,,,,,,,,,,,27.301819299998897,27.328263699999297,27.400994300000093,,,,179138,001,2024-04-28_12h03.37.591,ArchivoPrueba,2024.1.1,None,2024-04-28 12h03.52.743242 -0500,
¿Recuerda  algún inconveniente que ha  experimentado en el camino de su residencia a su lugar de trabajo?,5,white,0,8,8,8,0,2,2,2,27.428212099999655,,,,,,,,,,,,,,,27.40127240000038,27.428212099999655,27.501015099998767,,,,179138,001,2024-04-28_12h03.37.591,ArchivoPrueba,2024.1.1,None,2024-04-28 12h03.52.743242 -0500,
¿Recuerda si hay algún lugar u objeto en su camino hacia el trabajo que le llame la atención?,7,blue,0,8,8,8,0,3,3,3,27.52807810000013,,,,,,,,,,,,,,,27.501329699998678,27.52807810000013,27.60098079999989,,,,179138,001,2024-04-28_12h03.37.591,ArchivoPrueba,2024.1.1,None,2024-04-28 12h03.52.743242 -0500,
" ¿Recuerda el recorrido desde la entrada de su lugar de trabajo hasta su oficina, donde realiza sus funciones?",9,yellow,0,8,8,8,0,4,4,4,27.627994399999807,,,,,,,,,,,,,,,27.60128210000039,27.627994399999807,27.70110190000014,,,,179138,001,2024-04-28_12h03.37.591,ArchivoPrueba,2024.1.1,None,2024-04-28 12h03.52.743242 -0500,
¿Recuerda alguna actividad que realice durante los viajes de regreso a casa desde el trabajo para relajarse?,11,orange,0,8,8,8,0,5,5,5,27.7278495999999,,,,,,,,,,,,,,,27.701398699999118,27.7278495999999,27.80095749999964,,,,179138,001,2024-04-28_12h03.37.591,ArchivoPrueba,2024.1.1,None,2024-04-28 12h03.52.743242 -0500,
¿Recuerda el trayecto que realiza desde su casa hasta el lugar donde realiza sus compras?,13,brown,0,8,8,8,0,6,6,6,27.82766939999965,,,,,,,,,,,,,,,27.801233199999842,27.82766939999965,27.901192999999694,,,,179138,001,2024-04-28_12h03.37.591,ArchivoPrueba,2024.1.1,None,2024-04-28 12h03.52.743242 -0500,
¿Recuerda alguna situación divertida o interesante que haya experimentado durante el recorrido hacia el lugar de compras?,15,purple,0,8,8,8,0,7,7,7,27.927629899999374,,,,,,,,,,,,,,,27.901503499999308,27.927629899999374,28.000757699999667,,,,179138,001,2024-04-28_12h03.37.591,ArchivoPrueba,2024.1.1,None,2024-04-28 12h03.52.743242 -0500,
 ¿Recuerda qué es lo primero que ve al llegar al lugar donde realiza sus compras?,17,green,0,8,8,8,0,8,8,8,28.02742919999946,,,,,,,,,,,,,,,28.001032599999235,28.02742919999946,28.10079079999923,,,,179138,001,2024-04-28_12h03.37.591,ArchivoPrueba,2024.1.1,None,2024-04-28 12h03.52.743242 -0500,
¿Recuerda el recorrido desde su residencia hasta el centro de resonancia magnética?,19,red,0,8,8,8,0,9,9,9,28.127599800000098,,,,,,,,,,,,,,,28.101065099999687,28.127599800000098,28.20071049999933,,,,179138,001,2024-04-28_12h03.37.591,ArchivoPrueba,2024.1.1,None,2024-04-28 12h03.52.743242 -0500,
None,21,white,0,8,8,8,0,10,10,10,28.227477599999474,,,,,,,,,,,,,,,28.200988900000084,28.227477599999474,28.31703809999999,,,,179138,001,2024-04-28_12h03.37.591,ArchivoPrueba,2024.1.1,None,2024-04-28 12h03.52.743242 -0500,
None,23,blue,0,8,8,8,0,11,11,11,28.343936699999176,,,,,,,,,,,,,,,28.317365799999607,28.343936699999176,28.416779600000154,,,,179138,001,2024-04-28_12h03.37.591,ArchivoPrueba,2024.1.1,None,2024-04-28 12h03.52.743242 -0500,
None,25,yellow,0,8,8,8,0,12,12,12,28.44395710000026,,,,,,,,,,,,,,,28.41707619999943,28.44395710000026,28.50094309999986,,,,179138,001,2024-04-28_12h03.37.591,ArchivoPrueba,2024.1.1,None,2024-04-28 12h03.52.743242 -0500,
None,27,orange,0,8,8,8,0,13,13,13,28.527192999999897,,,,,,,,,,,,,,,28.50126139999884,28.527192999999897,28.60086769999907,,,,179138,001,2024-04-28_12h03.37.591,ArchivoPrueba,2024.1.1,None,2024-04-28 12h03.52.743242 -0500,
None,29,brown,0,8,8,8,0,14,14,14,28.62733809999918,,,,,,,,,,,,,,,28.601165299998684,28.62733809999918,28.717148499999894,,,,179138,001,2024-04-28_12h03.37.591,ArchivoPrueba,2024.1.1,None,2024-04-28 12h03.52.743242 -0500,
None,31,purple,0,8,8,8,0,15,15,15,28.743558799998937,,,,,,,,,,,,,,,28.71742169999925,28.743558799998937,28.816828999999416,,,,179138,001,2024-04-28_12h03.37.591,ArchivoPrueba,2024.1.1,None,2024-04-28 12h03.52.743242 -0500,
None,33,green,0,8,8,8,0,16,16,16,28.843515700000353,,,,,,,,,,,,,,,28.817105000000083,28.843515700000353,28.916560599998775,,,,179138,001,2024-04-28_12h03.37.591,ArchivoPrueba,2024.1.1,None,2024-04-28 12h03.52.743242 -0500,
None,35,red,0,8,8,8,0,17,17,17,28.94350459999987,,,,,,,,,,,,,,,28.916872599998896,28.94350459999987,29.019550799999706,,,,179138,001,2024-04-28_12h03.37.591,ArchivoPrueba,2024.1.1,None,2024-04-28 12h03.52.743242 -0500,
None,37,white,0,8,8,8,0,18,18,18,29.0429709,,,,,,,,,,,,,,,29.020012900000438,29.0429709,29.119266499999867,,,,179138,001,2024-04-28_12h03.37.591,ArchivoPrueba,2024.1.1,None,2024-04-28 12h03.52.743242 -0500,
None,39,blue,0,8,8,8,0,19,19,19,29.14294129999871,,,,,,,,,,,,,,,29.119766099998742,29.14294129999871,29.219096999999238,,,,179138,001,2024-04-28_12h03.37.591,ArchivoPrueba,2024.1.1,None,2024-04-28 12h03.52.743242 -0500,
 ¿Recuerda qué es lo primero que ve al llegar al lugar donde realiza sus compras?,17,green,0,8,8,8,,,,,,,,,,,,,,,,,,,,,,,,,,179138,001,2024-04-28_12h03.37.591,ArchivoPrueba,2024.1.1,None,2024-04-28 12h03.52.743242 -0500,
¿Recuerda el recorrido que realiza desde su cama hasta la cocina de su residencia?,1,green,0,9,9,9,0,0,0,0,30.25855000000047,,,,,,,,,,,,29.21967240000049,29.243044799999552,30.218345299999783,30.23569299999872,30.25855000000047,30.314538200000243,,,,179138,001,2024-04-28_12h03.37.591,ArchivoPrueba,2024.1.1,None,2024-04-28 12h03.52.743242 -0500,
¿Recuerda el trayecto que hace desde su casa hasta su lugar de trabajo?,3,red,0,9,9,9,0,1,1,1,30.3417673999993,,,,,,,,,,,,,,,30.315051499999754,30.3417673999993,30.417668799998864,,,,179138,001,2024-04-28_12h03.37.591,ArchivoPrueba,2024.1.1,None,2024-04-28 12h03.52.743242 -0500,
¿Recuerda  algún inconveniente que ha  experimentado en el camino de su residencia a su lugar de trabajo?,5,white,0,9,9,9,0,2,2,2,30.44177049999962,,,,,,,,,,,,,,,30.418120000000272,30.44177049999962,30.51829539999926,,,,179138,001,2024-04-28_12h03.37.591,ArchivoPrueba,2024.1.1,None,2024-04-28 12h03.52.743242 -0500,
¿Recuerda si hay algún lugar u objeto en su camino hacia el trabajo que le llame la atención?,7,blue,0,9,9,9,0,3,3,3,30.541744199999812,,,,,,,,,,,,,,,30.518818700000338,30.541744199999812,30.617665599998872,,,,179138,001,2024-04-28_12h03.37.591,ArchivoPrueba,2024.1.1,None,2024-04-28 12h03.52.743242 -0500,
" ¿Recuerda el recorrido desde la entrada de su lugar de trabajo hasta su oficina, donde realiza sus funciones?",9,yellow,0,9,9,9,0,4,4,4,30.6416707999997,,,,,,,,,,,,,,,30.6181177999988,30.6416707999997,30.718118799999502,,,,179138,001,2024-04-28_12h03.37.591,ArchivoPrueba,2024.1.1,None,2024-04-28 12h03.52.743242 -0500,
¿Recuerda alguna actividad que realice durante los viajes de regreso a casa desde el trabajo para relajarse?,11,orange,0,9,9,9,0,5,5,5,30.741408899999442,,,,,,,,,,,,,,,30.718629099999816,30.741408899999442,30.81767140000011,,,,179138,001,2024-04-28_12h03.37.591,ArchivoPrueba,2024.1.1,None,2024-04-28 12h03.52.743242 -0500,
¿Recuerda el trayecto que realiza desde su casa hasta el lugar donde realiza sus compras?,13,brown,0,9,9,9,0,6,6,6,30.84133060000022,,,,,,,,,,,,,,,30.81809929999872,30.84133060000022,30.917326400000093,,,,179138,001,2024-04-28_12h03.37.591,ArchivoPrueba,2024.1.1,None,2024-04-28 12h03.52.743242 -0500,
¿Recuerda alguna situación divertida o interesante que haya experimentado durante el recorrido hacia el lugar de compras?,15,purple,0,9,9,9,0,7,7,7,30.941300899999987,,,,,,,,,,,,,,,30.917774499999723,30.941300899999987,31.01754830000027,,,,179138,001,2024-04-28_12h03.37.591,ArchivoPrueba,2024.1.1,None,2024-04-28 12h03.52.743242 -0500,
 ¿Recuerda qué es lo primero que ve al llegar al lugar donde realiza sus compras?,17,green,0,9,9,9,0,8,8,8,31.041493200000332,,,,,,,,,,,,,,,31.017983100000492,31.041493200000332,31.117469599999822,,,,179138,001,2024-04-28_12h03.37.591,ArchivoPrueba,2024.1.1,None,2024-04-28 12h03.52.743242 -0500,
¿Recuerda el recorrido desde su residencia hasta el centro de resonancia magnética?,19,red,0,9,9,9,0,9,9,9,31.141238299998804,,,,,,,,,,,,,,,31.11790579999979,31.141238299998804,31.21406029999889,,,,179138,001,2024-04-28_12h03.37.591,ArchivoPrueba,2024.1.1,None,2024-04-28 12h03.52.743242 -0500,
None,21,white,0,9,9,9,0,10,10,10,31.2413521999988,,,,,,,,,,,,,,,31.214343599998756,31.2413521999988,31.314906199999314,,,,179138,001,2024-04-28_12h03.37.591,ArchivoPrueba,2024.1.1,None,2024-04-28 12h03.52.743242 -0500,
None,23,blue,0,9,9,9,0,11,11,11,31.341640499998903,,,,,,,,,,,,,,,31.315182299998924,31.341640499998903,31.417070600000443,,,,179138,001,2024-04-28_12h03.37.591,ArchivoPrueba,2024.1.1,None,2024-04-28 12h03.52.743242 -0500,
None,25,yellow,0,9,9,9,0,12,12,12,31.44149060000018,,,,,,,,,,,,,,,31.417604299998857,31.44149060000018,31.51423260000047,,,,179138,001,2024-04-28_12h03.37.591,ArchivoPrueba,2024.1.1,None,2024-04-28 12h03.52.743242 -0500,
None,27,orange,0,9,9,9,0,13,13,13,31.541184599998815,,,,,,,,,,,,,,,31.514575100000002,31.541184599998815,31.614227000000028,,,,179138,001,2024-04-28_12h03.37.591,ArchivoPrueba,2024.1.1,None,2024-04-28 12h03.52.743242 -0500,
None,29,brown,0,9,9,9,0,14,14,14,31.641548300000068,,,,,,,,,,,,,,,31.614610200000243,31.641548300000068,31.713952199999767,,,,179138,001,2024-04-28_12h03.37.591,ArchivoPrueba,2024.1.1,None,2024-04-28 12h03.52.743242 -0500,
None,31,purple,0,9,9,9,0,15,15,15,31.74105249999957,,,,,,,,,,,,,,,31.714278499999637,31.74105249999957,31.815808800000013,,,,179138,001,2024-04-28_12h03.37.591,ArchivoPrueba,2024.1.1,None,2024-04-28 12h03.52.743242 -0500,
None,33,green,0,9,9,9,0,16,16,16,31.841260299999703,,,,,,,,,,,,,,,31.816150499998912,31.841260299999703,31.913665500000207,,,,179138,001,2024-04-28_12h03.37.591,ArchivoPrueba,2024.1.1,None,2024-04-28 12h03.52.743242 -0500,
None,35,red,0,9,9,9,0,17,17,17,31.940844099999595,,,,,,,,,,,,,,,31.91398399999889,31.940844099999595,32.014730200000486,,,,179138,001,2024-04-28_12h03.37.591,ArchivoPrueba,2024.1.1,None,2024-04-28 12h03.52.743242 -0500,
None,37,white,0,9,9,9,0,18,18,18,32.0403409999999,,,,,,,,,,,,,,,32.0150663000004,32.0403409999999,32.11453859999892,,,,179138,001,2024-04-28_12h03.37.591,ArchivoPrueba,2024.1.1,None,2024-04-28 12h03.52.743242 -0500,
None,39,blue,0,9,9,9,0,19,19,19,32.14069019999988,,,,,,,,,,,,,,,32.1148792999993,32.14069019999988,32.21434450000015,,,,179138,001,2024-04-28_12h03.37.591,ArchivoPrueba,2024.1.1,None,2024-04-28 12h03.52.743242 -0500,
¿Recuerda el recorrido desde su residencia hasta el centro de resonancia magnética?,19,red,0,9,9,9,,,,,,,,,,,,,,,,,,,,,,,,,,179138,001,2024-04-28_12h03.37.591,ArchivoPrueba,2024.1.1,None,2024-04-28 12h03.52.743242 -0500,
¿Recuerda el recorrido que realiza desde su cama hasta la cocina de su residencia?,1,green,0,10,10,10,0,0,0,0,33.239700599999196,,,,,,,,,,,,32.21468139999888,32.24065399999927,33.21270949999962,33.224413599999025,33.239700599999196,33.312651299998834,,,,179138,001,2024-04-28_12h03.37.591,ArchivoPrueba,2024.1.1,None,2024-04-28 12h03.52.743242 -0500,
¿Recuerda el trayecto que hace desde su casa hasta su lugar de trabajo?,3,red,0,10,10,10,0,1,1,1,33.339473899999575,,,,,,,,,,,,,,,33.31295809999938,33.339473899999575,33.412641099999746,,,,179138,001,2024-04-28_12h03.37.591,ArchivoPrueba,2024.1.1,None,2024-04-28 12h03.52.743242 -0500,
¿Recuerda  algún inconveniente que ha  experimentado en el camino de su residencia a su lugar de trabajo?,5,white,0,10,10,10,0,2,2,2,33.439181499999904,,,,,,,,,,,,,,,33.41292690000046,33.439181499999904,33.51284529999975,,,,179138,001,2024-04-28_12h03.37.591,ArchivoPrueba,2024.1.1,None,2024-04-28 12h03.52.743242 -0500,
¿Recuerda si hay algún lugar u objeto en su camino hacia el trabajo que le llame la atención?,7,blue,0,10,10,10,0,3,3,3,33.539316000000326,,,,,,,,,,,,,,,33.513145999999324,33.539316000000326,33.61236780000036,,,,179138,001,2024-04-28_12h03.37.591,ArchivoPrueba,2024.1.1,None,2024-04-28 12h03.52.743242 -0500,
" ¿Recuerda el recorrido desde la entrada de su lugar de trabajo hasta su oficina, donde realiza sus funciones?",9,yellow,0,10,10,10,0,4,4,4,33.63915420000012,,,,,,,,,,,,,,,33.61271339999985,33.63915420000012,33.71332359999906,,,,179138,001,2024-04-28_12h03.37.591,ArchivoPrueba,2024.1.1,None,2024-04-28 12h03.52.743242 -0500,
¿Recuerda alguna actividad que realice durante los viajes de regreso a casa desde el trabajo para relajarse?,11,orange,0,10,10,10,0,5,5,5,33.73917939999956,,,,,,,,,,,,,,,33.71363709999969,33.73917939999956,33.812744799999564,,,,179138,001,2024-04-28_12h03.37.591,ArchivoPrueba,2024.1.1,None,2024-04-28 12h03.52.743242 -0500,
¿Recuerda el trayecto que realiza desde su casa hasta el lugar donde realiza sus compras?,13,brown,0,10,10,10,0,6,6,6,33.839108000000124,,,,,,,,,,,,,,,33.81303829999888,33.839108000000124,33.91239779999887,,,,179138,001,2024-04-28_12h03.37.591,ArchivoPrueba,2024.1.1,None,2024-04-28 12h03.52.743242 -0500,
¿Recuerda alguna situación divertida o interesante que haya experimentado durante el recorrido hacia el lugar de compras?,15,purple,0,10,10,10,0,7,7,7,33.93913839999914,,,,,,,,,,,,,,,33.91269049999937,33.93913839999914,34.012800999998944,,,,179138,001,2024-04-28_12h03.37.591,ArchivoPrueba,2024.1.1,None,2024-04-28 12h03.52.743242 -0500,
 ¿Recuerda qué es lo primero que ve al llegar al lugar donde realiza sus compras?,17,green,0,10,10,10,0,8,8,8,34.03870610000013,,,,,,,,,,,,,,,34.01310889999877,34.03870610000013,34.112329399999,,,,179138,001,2024-04-28_12h03.37.591,ArchivoPrueba,2024.1.1,None,2024-04-28 12h03.52.743242 -0500,
¿Recuerda el recorrido desde su residencia hasta el centro de resonancia magnética?,19,red,0,10,10,10,0,9,9,9,34.139129299999695,,,,,,,,,,,,,,,34.11264309999933,34.139129299999695,34.2118645999999,,,,179138,001,2024-04-28_12h03.37.591,ArchivoPrueba,2024.1.1,None,2024-04-28 12h03.52.743242 -0500,
None,21,white,0,10,10,10,0,10,10,10,34.23876989999917,,,,,,,,,,,,,,,34.212172600000486,34.23876989999917,34.311916499998915,,,,179138,001,2024-04-28_12h03.37.591,ArchivoPrueba,2024.1.1,None,2024-04-28 12h03.52.743242 -0500,
None,23,blue,0,10,10,10,0,11,11,11,34.338713899998766,,,,,,,,,,,,,,,34.31221410000035,34.338713899998766,34.411840999999185,,,,179138,001,2024-04-28_12h03.37.591,ArchivoPrueba,2024.1.1,None,2024-04-28 12h03.52.743242 -0500,
None,25,yellow,0,10,10,10,0,12,12,12,34.43828399999984,,,,,,,,,,,,,,,34.412161999998716,34.43828399999984,34.511751000000004,,,,179138,001,2024-04-28_12h03.37.591,ArchivoPrueba,2024.1.1,None,2024-04-28 12h03.52.743242 -0500,
None,27,orange,0,10,10,10,0,13,13,13,34.53819509999994,,,,,,,,,,,,,,,34.51202579999881,34.53819509999994,34.611668600000485,,,,179138,001,2024-04-28_12h03.37.591,ArchivoPrueba,2024.1.1,None,2024-04-28 12h03.52.743242 -0500,
None,29,brown,0,10,10,10,0,14,14,14,34.638379500000156,,,,,,,,,,,,,,,34.61196489999929,34.638379500000156,34.71161050000046,,,,179138,001,2024-04-28_12h03.37.591,ArchivoPrueba,2024.1.1,None,2024-04-28 12h03.52.743242 -0500,
None,31,purple,0,10,10,10,0,15,15,15,34.73829149999983,,,,,,,,,,,,,,,34.71188859999893,34.73829149999983,34.81159429999934,,,,179138,001,2024-04-28_12h03.37.591,ArchivoPrueba,2024.1.1,None,2024-04-28 12h03.52.743242 -0500,
None,33,green,0,10,10,10,0,16,16,16,34.838239599999724,,,,,,,,,,,,,,,34.811890400000266,34.838239599999724,34.91186959999868,,,,179138,001,2024-04-28_12h03.37.591,ArchivoPrueba,2024.1.1,None,2024-04-28 12h03.52.743242 -0500,
None,35,red,0,10,10,10,0,17,17,17,34.938173200000165,,,,,,,,,,,,,,,34.91220570000041,34.938173200000165,35.010874100000365,,,,179138,001,2024-04-28_12h03.37.591,ArchivoPrueba,2024.1.1,None,2024-04-28 12h03.52.743242 -0500,
None,37,white,0,10,10,10,0,18,18,18,35.038274000000456,,,,,,,,,,,,,,,35.01116879999972,35.038274000000456,35.11112800000046,,,,179138,001,2024-04-28_12h03.37.591,ArchivoPrueba,2024.1.1,None,2024-04-28 12h03.52.743242 -0500,
None,39,blue,0,10,10,10,0,19,19,19,35.13770509999995,,,,,,,,,,,,,,,35.11150579999958,35.13770509999995,35.21120630000041,,,,179138,001,2024-04-28_12h03.37.591,ArchivoPrueba,2024.1.1,None,2024-04-28 12h03.52.743242 -0500,
None,21,white,0,10,10,10,,,,,,,,,,,,,,,,,,,,,,,,,,179138,001,2024-04-28_12h03.37.591,ArchivoPrueba,2024.1.1,None,2024-04-28 12h03.52.743242 -0500,
¿Recuerda el recorrido que realiza desde su cama hasta la cocina de su residencia?,1,green,0,11,11,11,0,0,0,0,36.23702020000019,,,,,,,,,,,,35.21162980000008,35.2381647000002,36.21011319999889,36.221251299999494,36.23702020000019,36.30998550000004,,,,179138,001,2024-04-28_12h03.37.591,ArchivoPrueba,2024.1.1,None,2024-04-28 12h03.52.743242 -0500,
¿Recuerda el trayecto que hace desde su casa hasta su lugar de trabajo?,3,red,0,11,11,11,0,1,1,1,36.33701399999882,,,,,,,,,,,,,,,36.3103059999994,36.33701399999882,36.409953599999426,,,,179138,001,2024-04-28_12h03.37.591,ArchivoPrueba,2024.1.1,None,2024-04-28 12h03.52.743242 -0500,
¿Recuerda  algún inconveniente que ha  experimentado en el camino de su residencia a su lugar de trabajo?,5,white,0,11,11,11,0,2,2,2,36.436919800000396,,,,,,,,,,,,,,,36.41026369999963,36.436919800000396,36.51018169999952,,,,179138,001,2024-04-28_12h03.37.591,ArchivoPrueba,2024.1.1,None,2024-04-28 12h03.52.743242 -0500,
¿Recuerda si hay algún lugar u objeto en su camino hacia el trabajo que le llame la atención?,7,blue,0,11,11,11,0,3,3,3,36.53669489999993,,,,,,,,,,,,,,,36.51045949999934,36.53669489999993,36.60992459999943,,,,179138,001,2024-04-28_12h03.37.591,ArchivoPrueba,2024.1.1,None,2024-04-28 12h03.52.743242 -0500,
" ¿Recuerda el recorrido desde la entrada de su lugar de trabajo hasta su oficina, donde realiza sus funciones?",9,yellow,0,11,11,11,0,4,4,4,36.63664459999927,,,,,,,,,,,,,,,36.610221199998705,36.63664459999927,36.71023779999996,,,,179138,001,2024-04-28_12h03.37.591,ArchivoPrueba,2024.1.1,None,2024-04-28 12h03.52.743242 -0500,
¿Recuerda alguna actividad que realice durante los viajes de regreso a casa desde el trabajo para relajarse?,11,orange,0,11,11,11,0,5,5,5,36.73658549999891,,,,,,,,,,,,,,,36.71061769999869,36.73658549999891,36.81006510000043,,,,179138,001,2024-04-28_12h03.37.591,ArchivoPrueba,2024.1.1,None,2024-04-28 12h03.52.743242 -0500,
¿Recuerda el trayecto que realiza desde su casa hasta el lugar donde realiza sus compras?,13,brown,0,11,11,11,0,6,6,6,36.8364161999998,,,,,,,,,,,,,,,36.81034290000025,36.8364161999998,36.90963860000011,,,,179138,001,2024-04-28_12h03.37.591,ArchivoPrueba,2024.1.1,None,2024-04-28 12h03.52.743242 -0500,
¿Recuerda alguna situación divertida o interesante que haya experimentado durante el recorrido hacia el lugar de compras?,15,purple,0,11,11,11,0,7,7,7,36.936585399998876,,,,,,,,,,,,,,,36.90995209999892,36.936585399998876,37.009546899998895,,,,179138,001,2024-04-28_12h03.37.591,ArchivoPrueba,2024.1.1,None,2024-04-28 12h03.52.743242 -0500,
 ¿Recuerda qué es lo primero que ve al llegar al lugar donde realiza sus compras?,17,green,0,11,11,11,0,8,8,8,37.0360725999999,,,,,,,,,,,,,,,37.00988569999936,37.0360725999999,37.10949309999887,,,,179138,001,2024-04-28_12h03.37.591,ArchivoPrueba,2024.1.1,None,2024-04-28 12h03.52.743242 -0500,
¿Recuerda el recorrido desde su residencia hasta el centro de resonancia magnética?,19,red,0,11,11,11,0,9,9,9,37.13631890000033,,,,,,,,,,,,,,,37.10985289999917,37.13631890000033,37.20967849999943,,,,179138,001,2024-04-28_12h03.37.591,ArchivoPrueba,2024.1.1,None,2024-04-28 12h03.52.743242 -0500,
None,21,white,0,11,11,11,0,10,10,10,37.23626630000035,,,,,,,,,,,,,,,37.20998680000048,37.23626630000035,37.309113100000104,,,,179138,001,2024-04-28_12h03.37.591,ArchivoPrueba,2024.1.1,None,2024-04-28 12h03.52.743242 -0500,
None,23,blue,0,11,11,11,0,11,11,11,37.3362419999994,,,,,,,,,,,,,,,37.30941229999917,37.3362419999994,37.40989400000035,,,,179138,001,2024-04-28_12h03.37.591,ArchivoPrueba,2024.1.1,None,2024-04-28 12h03.52.743242 -0500,
None,25,yellow,0,11,11,11,0,12,12,12,37.43603979999898,,,,,,,,,,,,,,,37.41019889999916,37.43603979999898,37.50645119999899,,,,179138,001,2024-04-28_12h03.37.591,ArchivoPrueba,2024.1.1,None,2024-04-28 12h03.52.743242 -0500,
None,27,orange,0,11,11,11,0,13,13,13,37.52259319999939,,,,,,,,,,,,,,,37.506848199998785,37.52259319999939,37.60908279999967,,,,179138,001,2024-04-28_12h03.37.591,ArchivoPrueba,2024.1.1,None,2024-04-28 12h03.52.743242 -0500,
None,29,brown,0,11,11,11,0,14,14,14,37.635796700000355,,,,,,,,,,,,,,,37.60935699999936,37.635796700000355,37.70909229999961,,,,179138,001,2024-04-28_12h03.37.591,ArchivoPrueba,2024.1.1,None,2024-04-28 12h03.52.743242 -0500,
None,31,purple,0,11,11,11,0,15,15,15,37.73550499999874,,,,,,,,,,,,,,,37.70938819999901,37.73550499999874,37.80875190000006,,,,179138,001,2024-04-28_12h03.37.591,ArchivoPrueba,2024.1.1,None,2024-04-28 12h03.52.743242 -0500,
None,33,green,0,11,11,11,0,16,16,16,37.835412200000064,,,,,,,,,,,,,,,37.809060800000225,37.835412200000064,37.90884609999921,,,,179138,001,2024-04-28_12h03.37.591,ArchivoPrueba,2024.1.1,None,2024-04-28 12h03.52.743242 -0500,
None,35,red,0,11,11,11,0,17,17,17,37.93557499999952,,,,,,,,,,,,,,,37.90915899999891,37.93557499999952,38.00957509999898,,,,179138,001,2024-04-28_12h03.37.591,ArchivoPrueba,2024.1.1,None,2024-04-28 12h03.52.743242 -0500,
None,37,white,0,11,11,11,0,18,18,18,38.03520860000026,,,,,,,,,,,,,,,38.00988890000008,38.03520860000026,38.10885760000019,,,,179138,001,2024-04-28_12h03.37.591,ArchivoPrueba,2024.1.1,None,2024-04-28 12h03.52.743242 -0500,
None,39,blue,0,11,11,11,0,19,19,19,38.13565099999869,,,,,,,,,,,,,,,38.10916949999955,38.13565099999869,38.20942449999893,,,,179138,001,2024-04-28_12h03.37.591,ArchivoPrueba,2024.1.1,None,2024-04-28 12h03.52.743242 -0500,
None,23,blue,0,11,11,11,,,,,,,,,,,,,,,,,,,,,,,,,,179138,001,2024-04-28_12h03.37.591,ArchivoPrueba,2024.1.1,None,2024-04-28 12h03.52.743242 -0500,
¿Recuerda el recorrido que realiza desde su cama hasta la cocina de su residencia?,1,green,0,12,12,12,0,0,0,0,39.234580899999855,,,,,,,,,,,,38.20982129999902,38.23564040000019,39.20770529999936,39.21748300000036,39.234580899999855,39.307590000000346,,,,179138,001,2024-04-28_12h03.37.591,ArchivoPrueba,2024.1.1,None,2024-04-28 12h03.52.743242 -0500,
¿Recuerda el trayecto que hace desde su casa hasta su lugar de trabajo?,3,red,0,12,12,12,0,1,1,1,39.3343789999999,,,,,,,,,,,,,,,39.30790619999971,39.3343789999999,39.407887199999095,,,,179138,001,2024-04-28_12h03.37.591,ArchivoPrueba,2024.1.1,None,2024-04-28 12h03.52.743242 -0500,
¿Recuerda  algún inconveniente que ha  experimentado en el camino de su residencia a su lugar de trabajo?,5,white,0,12,12,12,0,2,2,2,39.43464089999907,,,,,,,,,,,,,,,39.4081771000001,39.43464089999907,39.50724479999917,,,,179138,001,2024-04-28_12h03.37.591,ArchivoPrueba,2024.1.1,None,2024-04-28 12h03.52.743242 -0500,
¿Recuerda si hay algún lugar u objeto en su camino hacia el trabajo que le llame la atención?,7,blue,0,12,12,12,0,3,3,3,39.53465479999977,,,,,,,,,,,,,,,39.50758990000031,39.53465479999977,39.60716969999885,,,,179138,001,2024-04-28_12h03.37.591,ArchivoPrueba,2024.1.1,None,2024-04-28 12h03.52.743242 -0500,
" ¿Recuerda el recorrido desde la entrada de su lugar de trabajo hasta su oficina, donde realiza sus funciones?",9,yellow,0,12,12,12,0,4,4,4,39.634199799998896,,,,,,,,,,,,,,,39.60747619999893,39.634199799998896,39.707065700000385,,,,179138,001,2024-04-28_12h03.37.591,ArchivoPrueba,2024.1.1,None,2024-04-28 12h03.52.743242 -0500,
¿Recuerda alguna actividad que realice durante los viajes de regreso a casa desde el trabajo para relajarse?,11,orange,0,12,12,12,0,5,5,5,39.73396680000042,,,,,,,,,,,,,,,39.70738749999873,39.73396680000042,39.80695319999904,,,,179138,001,2024-04-28_12h03.37.591,ArchivoPrueba,2024.1.1,None,2024-04-28 12h03.52.743242 -0500,
¿Recuerda el trayecto que realiza desde su casa hasta el lugar donde realiza sus compras?,13,brown,0,12,12,12,0,6,6,6,39.833827099999326,,,,,,,,,,,,,,,39.807247099999586,39.833827099999326,39.90706080000018,,,,179138,001,2024-04-28_12h03.37.591,ArchivoPrueba,2024.1.1,None,2024-04-28 12h03.52.743242 -0500,
¿Recuerda alguna situación divertida o interesante que haya experimentado durante el recorrido hacia el lugar de compras?,15,purple,0,12,12,12,0,7,7,7,39.933845100000326,,,,,,,,,,,,,,,39.90737470000022,39.933845100000326,40.00735709999935,,,,179138,001,2024-04-28_12h03.37.591,ArchivoPrueba,2024.1.1,None,2024-04-28 12h03.52.743242 -0500,
 ¿Recuerda qué es lo primero que ve al llegar al lugar donde realiza sus compras?,17,green,0,12,12,12,0,8,8,8,40.033370099999956,,,,,,,,,,,,,,,40.007705399999395,40.033370099999956,40.106876300000295,,,,179138,001,2024-04-28_12h03.37.591,ArchivoPrueba,2024.1.1,None,2024-04-28 12h03.52.743242 -0500,
¿Recuerda el recorrido desde su residencia hasta el centro de resonancia magnética?,19,red,0,12,12,12,0,9,9,9,40.133712099999684,,,,,,,,,,,,,,,40.107168000000456,40.133712099999684,40.20705699999962,,,,179138,001,2024-04-28_12h03.37.591,ArchivoPrueba,2024.1.1,None,2024-04-28 12h03.52.743242 -0500,
None,21,white,0,12,12,12,0,10,10,10,40.23358969999936,,,,,,,,,,,,,,,40.20734689999881,40.23358969999936,40.30671419999999,,,,179138,001,2024-04-28_12h03.37.591,ArchivoPrueba,2024.1.1,None,2024-04-28 12h03.52.743242 -0500,
None,23,blue,0,12,12,12,0,11,11,11,40.333428599999024,,,,,,,,,,,,,,,40.30700809999871,40.333428599999024,40.40728119999949,,,,179138,001,2024-04-28_12h03.37.591,ArchivoPrueba,2024.1.1,None,2024-04-28 12h03.52.743242 -0500,
None,25,yellow,0,12,12,12,0,12,12,12,40.433564099999785,,,,,,,,,,,,,,,40.407662399999026,40.433564099999785,40.50708889999987,,,,179138,001,2024-04-28_12h03.37.591,ArchivoPrueba,2024.1.1,None,2024-04-28 12h03.52.743242 -0500,
None,27,orange,0,12,12,12,0,13,13,13,40.533404199999495,,,,,,,,,,,,,,,40.50738879999881,40.533404199999495,40.60652779999873,,,,179138,001,2024-04-28_12h03.37.591,ArchivoPrueba,2024.1.1,None,2024-04-28 12h03.52.743242 -0500,
None,29,brown,0,12,12,12,0,14,14,14,40.6333080000004,,,,,,,,,,,,,,,40.60687770000004,40.6333080000004,40.70611739999913,,,,179138,001,2024-04-28_12h03.37.591,ArchivoPrueba,2024.1.1,None,2024-04-28 12h03.52.743242 -0500,
None,31,purple,0,12,12,12,0,15,15,15,40.73323259999961,,,,,,,,,,,,,,,40.70642289999887,40.73323259999961,40.80651409999882,,,,179138,001,2024-04-28_12h03.37.591,ArchivoPrueba,2024.1.1,None,2024-04-28 12h03.52.743242 -0500,
None,33,green,0,12,12,12,0,16,16,16,40.83341180000025,,,,,,,,,,,,,,,40.80687190000026,40.83341180000025,40.906396099999256,,,,179138,001,2024-04-28_12h03.37.591,ArchivoPrueba,2024.1.1,None,2024-04-28 12h03.52.743242 -0500,
None,35,red,0,12,12,12,0,17,17,17,40.9330616999996,,,,,,,,,,,,,,,40.906760300000315,40.9330616999996,41.00702789999923,,,,179138,001,2024-04-28_12h03.37.591,ArchivoPrueba,2024.1.1,None,2024-04-28 12h03.52.743242 -0500,
None,37,white,0,12,12,12,0,18,18,18,41.03281739999875,,,,,,,,,,,,,,,41.00732059999973,41.03281739999875,41.10623630000009,,,,179138,001,2024-04-28_12h03.37.591,ArchivoPrueba,2024.1.1,None,2024-04-28 12h03.52.743242 -0500,
None,39,blue,0,12,12,12,0,19,19,19,41.133061599999564,,,,,,,,,,,,,,,41.106554799998776,41.133061599999564,41.20628899999974,,,,179138,001,2024-04-28_12h03.37.591,ArchivoPrueba,2024.1.1,None,2024-04-28 12h03.52.743242 -0500,
None,25,yellow,0,12,12,12,,,,,,,,,,,,,,,,,,,,,,,,,,179138,001,2024-04-28_12h03.37.591,ArchivoPrueba,2024.1.1,None,2024-04-28 12h03.52.743242 -0500,
¿Recuerda el recorrido que realiza desde su cama hasta la cocina de su residencia?,1,green,0,13,13,13,0,0,0,0,42.25461109999924,,,,,,,,,,,,41.20671279999988,41.23312160000023,42.20634979999886,42.22192290000021,42.25461109999924,42.302885799999785,,,,179138,001,2024-04-28_12h03.37.591,ArchivoPrueba,2024.1.1,None,2024-04-28 12h03.52.743242 -0500,
¿Recuerda el trayecto que hace desde su casa hasta su lugar de trabajo?,3,red,0,13,13,13,0,1,1,1,42.329189099998985,,,,,,,,,,,,,,,42.30318889999944,42.329189099998985,42.43004949999886,,,,179138,001,2024-04-28_12h03.37.591,ArchivoPrueba,2024.1.1,None,2024-04-28 12h03.52.743242 -0500,
¿Recuerda  algún inconveniente que ha  experimentado en el camino de su residencia a su lugar de trabajo?,5,white,0,13,13,13,0,2,2,2,42.44973579999896,,,,,,,,,,,,,,,42.43133139999918,42.44973579999896,42.50204440000016,,,,179138,001,2024-04-28_12h03.37.591,ArchivoPrueba,2024.1.1,None,2024-04-28 12h03.52.743242 -0500,
¿Recuerda si hay algún lugar u objeto en su camino hacia el trabajo que le llame la atención?,7,blue,0,13,13,13,0,3,3,3,42.51486540000042,,,,,,,,,,,,,,,42.50238199999876,42.51486540000042,42.601996899998994,,,,179138,001,2024-04-28_12h03.37.591,ArchivoPrueba,2024.1.1,None,2024-04-28 12h03.52.743242 -0500,
" ¿Recuerda el recorrido desde la entrada de su lugar de trabajo hasta su oficina, donde realiza sus funciones?",9,yellow,0,13,13,13,0,4,4,4,42.61527869999918,,,,,,,,,,,,,,,42.60235019999891,42.61527869999918,42.70556690000012,,,,179138,001,2024-04-28_12h03.37.591,ArchivoPrueba,2024.1.1,None,2024-04-28 12h03.52.743242 -0500,
¿Recuerda alguna actividad que realice durante los viajes de regreso a casa desde el trabajo para relajarse?,11,orange,0,13,13,13,0,5,5,5,42.7323892000004,,,,,,,,,,,,,,,42.70587820000037,42.7323892000004,42.823792199998934,,,,179138,001,2024-04-28_12h03.37.591,ArchivoPrueba,2024.1.1,None,2024-04-28 12h03.52.743242 -0500,
¿Recuerda el trayecto que realiza desde su casa hasta el lugar donde realiza sus compras?,13,brown,0,13,13,13,0,6,6,6,42.84737150000001,,,,,,,,,,,,,,,42.82438499999989,42.84737150000001,42.90418680000039,,,,179138,001,2024-04-28_12h03.37.591,ArchivoPrueba,2024.1.1,None,2024-04-28 12h03.52.743242 -0500,
¿Recuerda alguna situación divertida o interesante que haya experimentado durante el recorrido hacia el lugar de compras?,15,purple,0,13,13,13,0,7,7,7,42.9336172000003,,,,,,,,,,,,,,,42.90453399999933,42.9336172000003,43.003042299998924,,,,179138,001,2024-04-28_12h03.37.591,ArchivoPrueba,2024.1.1,None,2024-04-28 12h03.52.743242 -0500,
 ¿Recuerda qué es lo primero que ve al llegar al lugar donde realiza sus compras?,17,green,0,13,13,13,0,8,8,8,43.016745699998864,,,,,,,,,,,,,,,43.00336040000002,43.016745699998864,43.10246290000032,,,,179138,001,2024-04-28_12h03.37.591,ArchivoPrueba,2024.1.1,None,2024-04-28 12h03.52.743242 -0500,
¿Recuerda el recorrido desde su residencia hasta el centro de resonancia magnética?,19,red,0,13,13,13,0,9,9,9,43.115308299999015,,,,,,,,,,,,,,,43.10325219999868,43.115308299999015,43.20536189999984,,,,179138,001,2024-04-28_12h03.37.591,ArchivoPrueba,2024.1.1,None,2024-04-28 12h03.52.743242 -0500,
None,21,white,0,13,13,13,0,10,10,10,43.233540499999435,,,,,,,,,,,,,,,43.20594639999945,43.233540499999435,43.3047717999998,,,,179138,001,2024-04-28_12h03.37.591,ArchivoPrueba,2024.1.1,None,2024-04-28 12h03.52.743242 -0500,
None,23,blue,0,13,13,13,0,11,11,11,43.332963499999096,,,,,,,,,,,,,,,43.30516159999934,43.332963499999096,43.40324909999981,,,,179138,001,2024-04-28_12h03.37.591,ArchivoPrueba,2024.1.1,None,2024-04-28 12h03.52.743242 -0500,
None,25,yellow,0,13,13,13,0,12,12,12,43.4304161,,,,,,,,,,,,,,,43.40354639999896,43.4304161,43.501882799999294,,,,179138,001,2024-04-28_12h03.37.591,ArchivoPrueba,2024.1.1,None,2024-04-28 12h03.52.743242 -0500,
None,27,orange,0,13,13,13,0,13,13,13,43.51536959999976,,,,,,,,,,,,,,,43.50229969999964,43.51536959999976,43.602418799999214,,,,179138,001,2024-04-28_12h03.37.591,ArchivoPrueba,2024.1.1,None,2024-04-28 12h03.52.743242 -0500,
None,29,brown,0,13,13,13,0,14,14,14,43.61529650000011,,,,,,,,,,,,,,,43.60273889999917,43.61529650000011,43.704403800000364,,,,179138,001,2024-04-28_12h03.37.591,ArchivoPrueba,2024.1.1,None,2024-04-28 12h03.52.743242 -0500,
None,31,purple,0,13,13,13,0,15,15,15,43.73355139999876,,,,,,,,,,,,,,,43.704939499999455,43.73355139999876,43.80263240000022,,,,179138,001,2024-04-28_12h03.37.591,ArchivoPrueba,2024.1.1,None,2024-04-28 12h03.52.743242 -0500,
None,33,green,0,13,13,13,0,16,16,16,43.83088189999944,,,,,,,,,,,,,,,43.80292779999945,43.83088189999944,43.90429159999985,,,,179138,001,2024-04-28_12h03.37.591,ArchivoPrueba,2024.1.1,None,2024-04-28 12h03.52.743242 -0500,
None,35,red,0,13,13,13,0,17,17,17,43.95000599999912,,,,,,,,,,,,,,,43.904648499999894,43.95000599999912,44.023476799999116,,,,179138,001,2024-04-28_12h03.37.591,ArchivoPrueba,2024.1.1,None,2024-04-28 12h03.52.743242 -0500,
None,37,white,0,13,13,13,0,18,18,18,44.05524759999935,,,,,,,,,,,,,,,44.02392449999934,44.05524759999935,44.12296559999959,,,,179138,001,2024-04-28_12h03.37.591,ArchivoPrueba,2024.1.1,None,2024-04-28 12h03.52.743242 -0500,
None,39,blue,0,13,13,13,0,19,19,19,44.146567899999354,,,,,,,,,,,,,,,44.12363770000047,44.146567899999354,44.21004869999888,,,,179138,001,2024-04-28_12h03.37.591,ArchivoPrueba,2024.1.1,None,2024-04-28 12h03.52.743242 -0500,
None,27,orange,0,13,13,13,,,,,,,,,,,,,,,,,,,,,,,,,,179138,001,2024-04-28_12h03.37.591,ArchivoPrueba,2024.1.1,None,2024-04-28 12h03.52.743242 -0500,
¿Recuerda el recorrido que realiza desde su cama hasta la cocina de su residencia?,1,green,0,14,14,14,0,0,0,0,45.23113809999995,,,,,,,,,,,,44.21052079999936,44.2303222999999,45.201821599999676,45.21634249999988,45.23113809999995,45.32213899999988,,,,179138,001,2024-04-28_12h03.37.591,ArchivoPrueba,2024.1.1,None,2024-04-28 12h03.52.743242 -0500,
¿Recuerda el trayecto que hace desde su casa hasta su lugar de trabajo?,3,red,0,14,14,14,0,1,1,1,45.35070160000032,,,,,,,,,,,,,,,45.32257819999904,45.35070160000032,45.422215999999025,,,,179138,001,2024-04-28_12h03.37.591,ArchivoPrueba,2024.1.1,None,2024-04-28 12h03.52.743242 -0500,
¿Recuerda  algún inconveniente que ha  experimentado en el camino de su residencia a su lugar de trabajo?,5,white,0,14,14,14,0,2,2,2,45.449569899999915,,,,,,,,,,,,,,,45.42256339999949,45.449569899999915,45.50563890000012,,,,179138,001,2024-04-28_12h03.37.591,ArchivoPrueba,2024.1.1,None,2024-04-28 12h03.52.743242 -0500,
¿Recuerda si hay algún lugar u objeto en su camino hacia el trabajo que le llame la atención?,7,blue,0,14,14,14,0,3,3,3,45.5316215999992,,,,,,,,,,,,,,,45.505966499998976,45.5316215999992,45.602192999998806,,,,179138,001,2024-04-28_12h03.37.591,ArchivoPrueba,2024.1.1,None,2024-04-28 12h03.52.743242 -0500,
" ¿Recuerda el recorrido desde la entrada de su lugar de trabajo hasta su oficina, donde realiza sus funciones?",9,yellow,0,14,14,14,0,4,4,4,45.630450999999084,,,,,,,,,,,,,,,45.602530500000285,45.630450999999084,45.7034038999991,,,,179138,001,2024-04-28_12h03.37.591,ArchivoPrueba,2024.1.1,None,2024-04-28 12h03.52.743242 -0500,
¿Recuerda alguna actividad que realice durante los viajes de regreso a casa desde el trabajo para relajarse?,11,orange,0,14,14,14,0,5,5,5,45.729131099998995,,,,,,,,,,,,,,,45.70373689999906,45.729131099998995,45.80383309999888,,,,179138,001,2024-04-28_12h03.37.591,ArchivoPrueba,2024.1.1,None,2024-04-28 12h03.52.743242 -0500,
¿Recuerda el trayecto que realiza desde su casa hasta el lugar donde realiza sus compras?,13,brown,0,14,14,14,0,6,6,6,45.829404899999645,,,,,,,,,,,,,,,45.80410490000031,45.829404899999645,45.918498199998794,,,,179138,001,2024-04-28_12h03.37.591,ArchivoPrueba,2024.1.1,None,2024-04-28 12h03.52.743242 -0500,
¿Recuerda alguna situación divertida o interesante que haya experimentado durante el recorrido hacia el lugar de compras?,15,purple,0,14,14,14,0,7,7,7,45.94834330000049,,,,,,,,,,,,,,,45.91881139999896,45.94834330000049,46.018930799999,,,,179138,001,2024-04-28_12h03.37.591,ArchivoPrueba,2024.1.1,None,2024-04-28 12h03.52.743242 -0500,
 ¿Recuerda qué es lo primero que ve al llegar al lugar donde realiza sus compras?,17,green,0,14,14,14,0,8,8,8,46.049615599999015,,,,,,,,,,,,,,,46.01922209999975,46.049615599999015,46.10518400000001,,,,179138,001,2024-04-28_12h03.37.591,ArchivoPrueba,2024.1.1,None,2024-04-28 12h03.52.743242 -0500,
¿Recuerda el recorrido desde su residencia hasta el centro de resonancia magnética?,19,red,0,14,14,14,0,9,9,9,46.129046899999594,,,,,,,,,,,,,,,46.105464700000084,46.129046899999594,46.216179199998805,,,,179138,001,2024-04-28_12h03.37.591,ArchivoPrueba,2024.1.1,None,2024-04-28 12h03.52.743242 -0500,
None,21,white,0,14,14,14,0,10,10,10,46.23471529999915,,,,,,,,,,,,,,,46.21646200000032,46.23471529999915,46.30376400000023,,,,179138,001,2024-04-28_12h03.37.591,ArchivoPrueba,2024.1.1,None,2024-04-28 12h03.52.743242 -0500,
None,23,blue,0,14,14,14,0,11,11,11,46.33078849999947,,,,,,,,,,,,,,,46.30431139999928,46.33078849999947,46.40192989999923,,,,179138,001,2024-04-28_12h03.37.591,ArchivoPrueba,2024.1.1,None,2024-04-28 12h03.52.743242 -0500,
None,25,yellow,0,14,14,14,0,12,12,12,46.42859010000029,,,,,,,,,,,,,,,46.40236360000017,46.42859010000029,46.50154939999993,,,,179138,001,2024-04-28_12h03.37.591,ArchivoPrueba,2024.1.1,None,2024-04-28 12h03.52.743242 -0500,
None,27,orange,0,14,14,14,0,13,13,13,46.5285058999998,,,,,,,,,,,,,,,46.501826800000345,46.5285058999998,46.602048499999,,,,179138,001,2024-04-28_12h03.37.591,ArchivoPrueba,2024.1.1,None,2024-04-28 12h03.52.743242 -0500,
None,29,brown,0,14,14,14,0,14,14,14,46.62826689999929,,,,,,,,,,,,,,,46.60234669999954,46.62826689999929,46.704518599999574,,,,179138,001,2024-04-28_12h03.37.591,ArchivoPrueba,2024.1.1,None,2024-04-28 12h03.52.743242 -0500,
None,31,purple,0,14,14,14,0,15,15,15,46.73419719999947,,,,,,,,,,,,,,,46.706604799999695,46.73419719999947,46.80251339999995,,,,179138,001,2024-04-28_12h03.37.591,ArchivoPrueba,2024.1.1,None,2024-04-28 12h03.52.743242 -0500,
None,33,green,0,14,14,14,0,16,16,16,46.83392139999887,,,,,,,,,,,,,,,46.80285609999919,46.83392139999887,46.90225660000033,,,,179138,001,2024-04-28_12h03.37.591,ArchivoPrueba,2024.1.1,None,2024-04-28 12h03.52.743242 -0500,
None,35,red,0,14,14,14,0,17,17,17,46.930777199999284,,,,,,,,,,,,,,,46.9025744999999,46.930777199999284,47.00120659999993,,,,179138,001,2024-04-28_12h03.37.591,ArchivoPrueba,2024.1.1,None,2024-04-28 12h03.52.743242 -0500,
None,37,white,0,14,14,14,0,18,18,18,47.028012200000376,,,,,,,,,,,,,,,47.00157289999879,47.028012200000376,47.10054719999971,,,,179138,001,2024-04-28_12h03.37.591,ArchivoPrueba,2024.1.1,None,2024-04-28 12h03.52.743242 -0500,
None,39,blue,0,14,14,14,0,19,19,19,47.12781580000046,,,,,,,,,,,,,,,47.100932499999544,47.12781580000046,47.20166069999868,,,,179138,001,2024-04-28_12h03.37.591,ArchivoPrueba,2024.1.1,None,2024-04-28 12h03.52.743242 -0500,
None,29,brown,0,14,14,14,,,,,,,,,,,,,,,,,,,,,,,,,,179138,001,2024-04-28_12h03.37.591,ArchivoPrueba,2024.1.1,None,2024-04-28 12h03.52.743242 -0500,
¿Recuerda el recorrido que realiza desde su cama hasta la cocina de su residencia?,1,green,0,15,15,15,0,0,0,0,48.24551429999883,,,,,,,,,,,,47.202027799999996,47.23046489999979,48.21668270000009,48.23047369999949,48.24551429999883,48.3195839,,,,179138,001,2024-04-28_12h03.37.591,ArchivoPrueba,2024.1.1,None,2024-04-28 12h03.52.743242 -0500,
¿Recuerda el trayecto que hace desde su casa hasta su lugar de trabajo?,3,red,0,15,15,15,0,1,1,1,48.34345779999967,,,,,,,,,,,,,,,48.32006369999908,48.34345779999967,48.40298409999923,,,,179138,001,2024-04-28_12h03.37.591,ArchivoPrueba,2024.1.1,None,2024-04-28 12h03.52.743242 -0500,
¿Recuerda  algún inconveniente que ha  experimentado en el camino de su residencia a su lugar de trabajo?,5,white,0,15,15,15,0,2,2,2,48.4267650999991,,,,,,,,,,,,,,,48.403479499998866,48.4267650999991,48.57414129999961,,,,179138,001,2024-04-28_12h03.37.591,ArchivoPrueba,2024.1.1,None,2024-04-28 12h03.52.743242 -0500,
¿Recuerda si hay algún lugar u objeto en su camino hacia el trabajo que le llame la atención?,7,blue,0,15,15,15,0,3,3,3,48.596313799998825,,,,,,,,,,,,,,,48.57489749999877,48.596313799998825,48.61549070000001,,,,179138,001,2024-04-28_12h03.37.591,ArchivoPrueba,2024.1.1,None,2024-04-28 12h03.52.743242 -0500,
" ¿Recuerda el recorrido desde la entrada de su lugar de trabajo hasta su oficina, donde realiza sus funciones?",9,yellow,0,15,15,15,0,4,4,4,48.64593760000025,,,,,,,,,,,,,,,48.6157635999989,48.64593760000025,48.72402460000012,,,,179138,001,2024-04-28_12h03.37.591,ArchivoPrueba,2024.1.1,None,2024-04-28 12h03.52.743242 -0500,
¿Recuerda alguna actividad que realice durante los viajes de regreso a casa desde el trabajo para relajarse?,11,orange,0,15,15,15,0,5,5,5,48.74607490000017,,,,,,,,,,,,,,,48.72445289999996,48.74607490000017,48.80242709999948,,,,179138,001,2024-04-28_12h03.37.591,ArchivoPrueba,2024.1.1,None,2024-04-28 12h03.52.743242 -0500,
¿Recuerda el trayecto que realiza desde su casa hasta el lugar donde realiza sus compras?,13,brown,0,15,15,15,0,6,6,6,48.83220119999896,,,,,,,,,,,,,,,48.80281769999965,48.83220119999896,48.922655999998824,,,,179138,001,2024-04-28_12h03.37.591,ArchivoPrueba,2024.1.1,None,2024-04-28 12h03.52.743242 -0500,
¿Recuerda alguna situación divertida o interesante que haya experimentado durante el recorrido hacia el lugar de compras?,15,purple,0,15,15,15,0,7,7,7,48.95011720000002,,,,,,,,,,,,,,,48.92320519999885,48.95011720000002,49.00500069999907,,,,179138,001,2024-04-28_12h03.37.591,ArchivoPrueba,2024.1.1,None,2024-04-28 12h03.52.743242 -0500,
 ¿Recuerda qué es lo primero que ve al llegar al lugar donde realiza sus compras?,17,green,0,15,15,15,0,8,8,8,49.0288733999987,,,,,,,,,,,,,,,49.005858499998794,49.0288733999987,49.116849099998944,,,,179138,001,2024-04-28_12h03.37.591,ArchivoPrueba,2024.1.1,None,2024-04-28 12h03.52.743242 -0500,
¿Recuerda el recorrido desde su residencia hasta el centro de resonancia magnética?,19,red,0,15,15,15,0,9,9,9,49.14832569999999,,,,,,,,,,,,,,,49.11724770000001,49.14832569999999,49.20249440000043,,,,179138,001,2024-04-28_12h03.37.591,ArchivoPrueba,2024.1.1,None,2024-04-28 12h03.52.743242 -0500,
None,21,white,0,15,15,15,0,10,10,10,49.22871809999924,,,,,,,,,,,,,,,49.20278589999907,49.22871809999924,49.3184956999994,,,,179138,001,2024-04-28_12h03.37.591,ArchivoPrueba,2024.1.1,None,2024-04-28 12h03.52.743242 -0500,
None,23,blue,0,15,15,15,0,11,11,11,49.342439699999886,,,,,,,,,,,,,,,49.318846199999825,49.342439699999886,49.4025445999996,,,,179138,001,2024-04-28_12h03.37.591,ArchivoPrueba,2024.1.1,None,2024-04-28 12h03.52.743242 -0500,
None,25,yellow,0,15,15,15,0,12,12,12,49.42599709999922,,,,,,,,,,,,,,,49.40316039999925,49.42599709999922,49.502369399999225,,,,179138,001,2024-04-28_12h03.37.591,ArchivoPrueba,2024.1.1,None,2024-04-28 12h03.52.743242 -0500,
None,27,orange,0,15,15,15,0,13,13,13,49.530176700000084,,,,,,,,,,,,,,,49.50284029999966,49.530176700000084,49.60071070000049,,,,179138,001,2024-04-28_12h03.37.591,ArchivoPrueba,2024.1.1,None,2024-04-28 12h03.52.743242 -0500,
None,29,brown,0,15,15,15,0,14,14,14,49.627890699999625,,,,,,,,,,,,,,,49.60126019999916,49.627890699999625,49.71743719999904,,,,179138,001,2024-04-28_12h03.37.591,ArchivoPrueba,2024.1.1,None,2024-04-28 12h03.52.743242 -0500,
None,31,purple,0,15,15,15,0,15,15,15,49.74528529999952,,,,,,,,,,,,,,,49.718037799999365,49.74528529999952,49.81526279999889,,,,179138,001,2024-04-28_12h03.37.591,ArchivoPrueba,2024.1.1,None,2024-04-28 12h03.52.743242 -0500,
None,33,green,0,15,15,15,0,16,16,16,49.844957299999805,,,,,,,,,,,,,,,49.81554349999897,49.844957299999805,49.918947399999524,,,,179138,001,2024-04-28_12h03.37.591,ArchivoPrueba,2024.1.1,None,2024-04-28 12h03.52.743242 -0500,
None,35,red,0,15,15,15,0,17,17,17,49.946644699999524,,,,,,,,,,,,,,,49.92023440000048,49.946644699999524,50.01569000000018,,,,179138,001,2024-04-28_12h03.37.591,ArchivoPrueba,2024.1.1,None,2024-04-28 12h03.52.743242 -0500,
None,37,white,0,15,15,15,0,18,18,18,50.04427980000037,,,,,,,,,,,,,,,50.01598779999949,50.04427980000037,50.11675079999986,,,,179138,001,2024-04-28_12h03.37.591,ArchivoPrueba,2024.1.1,None,2024-04-28 12h03.52.743242 -0500,
None,39,blue,0,15,15,15,0,19,19,19,50.18257249999988,,,,,,,,,,,,,,,50.11731529999997,50.18257249999988,50.2141515000003,,,,179138,001,2024-04-28_12h03.37.591,ArchivoPrueba,2024.1.1,None,2024-04-28 12h03.52.743242 -0500,
None,31,purple,0,15,15,15,,,,,,,,,,,,,,,,,,,,,,,,,,179138,001,2024-04-28_12h03.37.591,ArchivoPrueba,2024.1.1,None,2024-04-28 12h03.52.743242 -0500,
¿Recuerda el recorrido que realiza desde su cama hasta la cocina de su residencia?,1,green,0,16,16,16,0,0,0,0,51.26146030000018,,,,,,,,,,,,50.21447999999873,50.24368809999942,51.205884400000286,51.23296870000013,51.26146030000018,51.31334609999976,,,,179138,001,2024-04-28_12h03.37.591,ArchivoPrueba,2024.1.1,None,2024-04-28 12h03.52.743242 -0500,
¿Recuerda el trayecto que hace desde su casa hasta su lugar de trabajo?,3,red,0,16,16,16,0,1,1,1,51.343796699999075,,,,,,,,,,,,,,,51.3136470999998,51.343796699999075,51.42877380000027,,,,179138,001,2024-04-28_12h03.37.591,ArchivoPrueba,2024.1.1,None,2024-04-28 12h03.52.743242 -0500,
¿Recuerda  algún inconveniente que ha  experimentado en el camino de su residencia a su lugar de trabajo?,5,white,0,16,16,16,0,2,2,2,51.4603833000001,,,,,,,,,,,,,,,51.429414299998825,51.4603833000001,51.51411720000033,,,,179138,001,2024-04-28_12h03.37.591,ArchivoPrueba,2024.1.1,None,2024-04-28 12h03.52.743242 -0500,
¿Recuerda si hay algún lugar u objeto en su camino hacia el trabajo que le llame la atención?,7,blue,0,16,16,16,0,3,3,3,51.54395519999889,,,,,,,,,,,,,,,51.51443879999897,51.54395519999889,51.60114210000029,,,,179138,001,2024-04-28_12h03.37.591,ArchivoPrueba,2024.1.1,None,2024-04-28 12h03.52.743242 -0500,
" ¿Recuerda el recorrido desde la entrada de su lugar de trabajo hasta su oficina, donde realiza sus funciones?",9,yellow,0,16,16,16,0,4,4,4,51.62776579999991,,,,,,,,,,,,,,,51.6022940999992,51.62776579999991,51.721946699999535,,,,179138,001,2024-04-28_12h03.37.591,ArchivoPrueba,2024.1.1,None,2024-04-28 12h03.52.743242 -0500,
¿Recuerda alguna actividad que realice durante los viajes de regreso a casa desde el trabajo para relajarse?,11,orange,0,16,16,16,0,5,5,5,51.74488240000028,,,,,,,,,,,,,,,51.72275509999963,51.74488240000028,51.81485640000028,,,,179138,001,2024-04-28_12h03.37.591,ArchivoPrueba,2024.1.1,None,2024-04-28 12h03.52.743242 -0500,
¿Recuerda el trayecto que realiza desde su casa hasta el lugar donde realiza sus compras?,13,brown,0,16,16,16,0,6,6,6,51.84225279999919,,,,,,,,,,,,,,,51.8151958999988,51.84225279999919,51.914259199998924,,,,179138,001,2024-04-28_12h03.37.591,ArchivoPrueba,2024.1.1,None,2024-04-28 12h03.52.743242 -0500,
¿Recuerda alguna situación divertida o interesante que haya experimentado durante el recorrido hacia el lugar de compras?,15,purple,0,16,16,16,0,7,7,7,51.94303799999943,,,,,,,,,,,,,,,51.91463239999939,51.94303799999943,52.03053980000004,,,,179138,001,2024-04-28_12h03.37.591,ArchivoPrueba,2024.1.1,None,2024-04-28 12h03.52.743242 -0500,
 ¿Recuerda qué es lo primero que ve al llegar al lugar donde realiza sus compras?,17,green,0,16,16,16,0,8,8,8,52.06025679999948,,,,,,,,,,,,,,,52.03099099999963,52.06025679999948,52.113908499999525,,,,179138,001,2024-04-28_12h03.37.591,ArchivoPrueba,2024.1.1,None,2024-04-28 12h03.52.743242 -0500,
¿Recuerda el recorrido desde su residencia hasta el centro de resonancia magnética?,19,red,0,16,16,16,0,9,9,9,52.14269229999991,,,,,,,,,,,,,,,52.11432749999949,52.14269229999991,52.2038565999992,,,,179138,001,2024-04-28_12h03.37.591,ArchivoPrueba,2024.1.1,None,2024-04-28 12h03.52.743242 -0500,
None,21,white,0,16,16,16,0,10,10,10,52.22592470000018,,,,,,,,,,,,,,,52.20444739999948,52.22592470000018,52.314147299999604,,,,179138,001,2024-04-28_12h03.37.591,ArchivoPrueba,2024.1.1,None,2024-04-28 12h03.52.743242 -0500,
None,23,blue,0,16,16,16,0,11,11,11,52.342612599999484,,,,,,,,,,,,,,,52.3145698999997,52.342612599999484,52.40596379999988,,,,179138,001,2024-04-28_12h03.37.591,ArchivoPrueba,2024.1.1,None,2024-04-28 12h03.52.743242 -0500,
None,25,yellow,0,16,16,16,0,12,12,12,52.425542799999675,,,,,,,,,,,,,,,52.40629309999895,52.425542799999675,52.51887499999975,,,,179138,001,2024-04-28_12h03.37.591,ArchivoPrueba,2024.1.1,None,2024-04-28 12h03.52.743242 -0500,
None,27,orange,0,16,16,16,0,13,13,13,52.54241149999871,,,,,,,,,,,,,,,52.52031249999891,52.54241149999871,52.63025039999957,,,,179138,001,2024-04-28_12h03.37.591,ArchivoPrueba,2024.1.1,None,2024-04-28 12h03.52.743242 -0500,
None,29,brown,0,16,16,16,0,14,14,14,52.658592099998714,,,,,,,,,,,,,,,52.63071739999941,52.658592099998714,52.7130073999997,,,,179138,001,2024-04-28_12h03.37.591,ArchivoPrueba,2024.1.1,None,2024-04-28 12h03.52.743242 -0500,
None,31,purple,0,16,16,16,0,15,15,15,52.7421063999991,,,,,,,,,,,,,,,52.71338300000025,52.7421063999991,52.81296289999955,,,,179138,001,2024-04-28_12h03.37.591,ArchivoPrueba,2024.1.1,None,2024-04-28 12h03.52.743242 -0500,
None,33,green,0,16,16,16,0,16,16,16,52.842191800000364,,,,,,,,,,,,,,,52.81327989999954,52.842191800000364,52.90784170000006,,,,179138,001,2024-04-28_12h03.37.591,ArchivoPrueba,2024.1.1,None,2024-04-28 12h03.52.743242 -0500,
None,35,red,0,16,16,16,0,17,17,17,52.94278879999911,,,,,,,,,,,,,,,52.908578799999304,52.94278879999911,53.0127408999997,,,,179138,001,2024-04-28_12h03.37.591,ArchivoPrueba,2024.1.1,None,2024-04-28 12h03.52.743242 -0500,
None,37,white,0,16,16,16,0,18,18,18,53.041747600000235,,,,,,,,,,,,,,,53.01308649999919,53.041747600000235,53.11392530000012,,,,179138,001,2024-04-28_12h03.37.591,ArchivoPrueba,2024.1.1,None,2024-04-28 12h03.52.743242 -0500,
None,39,blue,0,16,16,16,0,19,19,19,53.14197359999889,,,,,,,,,,,,,,,53.11430399999881,53.14197359999889,53.220162399999026,,,,179138,001,2024-04-28_12h03.37.591,ArchivoPrueba,2024.1.1,None,2024-04-28 12h03.52.743242 -0500,
None,33,green,0,16,16,16,,,,,,,,,,,,,,,,,,,,,,,,,,179138,001,2024-04-28_12h03.37.591,ArchivoPrueba,2024.1.1,None,2024-04-28 12h03.52.743242 -0500,
¿Recuerda el recorrido que realiza desde su cama hasta la cocina de su residencia?,1,green,0,17,17,17,0,0,0,0,54.23851289999948,,,,,,,,,,,,53.22120299999915,53.24216069999966,54.21121899999889,54.22394720000011,54.23851289999948,54.3095986999997,,,,179138,001,2024-04-28_12h03.37.591,ArchivoPrueba,2024.1.1,None,2024-04-28 12h03.52.743242 -0500,
¿Recuerda el trayecto que hace desde su casa hasta su lugar de trabajo?,3,red,0,17,17,17,0,1,1,1,54.33807659999911,,,,,,,,,,,,,,,54.31013619999976,54.33807659999911,54.41111079999973,,,,179138,001,2024-04-28_12h03.37.591,ArchivoPrueba,2024.1.1,None,2024-04-28 12h03.52.743242 -0500,
¿Recuerda  algún inconveniente que ha  experimentado en el camino de su residencia a su lugar de trabajo?,5,white,0,17,17,17,0,2,2,2,54.438239999999496,,,,,,,,,,,,,,,54.41138709999905,54.438239999999496,54.50939870000002,,,,179138,001,2024-04-28_12h03.37.591,ArchivoPrueba,2024.1.1,None,2024-04-28 12h03.52.743242 -0500,
¿Recuerda si hay algún lugar u objeto en su camino hacia el trabajo que le llame la atención?,7,blue,0,17,17,17,0,3,3,3,54.52359699999943,,,,,,,,,,,,,,,54.50987150000037,54.52359699999943,54.610367600000245,,,,179138,001,2024-04-28_12h03.37.591,ArchivoPrueba,2024.1.1,None,2024-04-28 12h03.52.743242 -0500,
" ¿Recuerda el recorrido desde la entrada de su lugar de trabajo hasta su oficina, donde realiza sus funciones?",9,yellow,0,17,17,17,0,4,4,4,54.63818589999937,,,,,,,,,,,,,,,54.61064169999918,54.63818589999937,54.70903679999901,,,,179138,001,2024-04-28_12h03.37.591,ArchivoPrueba,2024.1.1,None,2024-04-28 12h03.52.743242 -0500,
¿Recuerda alguna actividad que realice durante los viajes de regreso a casa desde el trabajo para relajarse?,11,orange,0,17,17,17,0,5,5,5,54.72367149999991,,,,,,,,,,,,,,,54.70956389999992,54.72367149999991,54.81035399999928,,,,179138,001,2024-04-28_12h03.37.591,ArchivoPrueba,2024.1.1,None,2024-04-28 12h03.52.743242 -0500,
¿Recuerda el trayecto que realiza desde su casa hasta el lugar donde realiza sus compras?,13,brown,0,17,17,17,0,6,6,6,54.84024339999996,,,,,,,,,,,,,,,54.81068369999957,54.84024339999996,54.90888149999955,,,,179138,001,2024-04-28_12h03.37.591,ArchivoPrueba,2024.1.1,None,2024-04-28 12h03.52.743242 -0500,
¿Recuerda alguna situación divertida o interesante que haya experimentado durante el recorrido hacia el lugar de compras?,15,purple,0,17,17,17,0,7,7,7,54.92341039999883,,,,,,,,,,,,,,,54.90932989999965,54.92341039999883,55.01026599999932,,,,179138,001,2024-04-28_12h03.37.591,ArchivoPrueba,2024.1.1,None,2024-04-28 12h03.52.743242 -0500,
 ¿Recuerda qué es lo primero que ve al llegar al lugar donde realiza sus compras?,17,green,0,17,17,17,0,8,8,8,55.037364899999375,,,,,,,,,,,,,,,55.01054899999872,55.037364899999375,55.10947979999946,,,,179138,001,2024-04-28_12h03.37.591,ArchivoPrueba,2024.1.1,None,2024-04-28 12h03.52.743242 -0500,
¿Recuerda el recorrido desde su residencia hasta el centro de resonancia magnética?,19,red,0,17,17,17,0,9,9,9,55.137593299999935,,,,,,,,,,,,,,,55.110027900000205,55.137593299999935,55.21834039999885,,,,179138,001,2024-04-28_12h03.37.591,ArchivoPrueba,2024.1.1,None,2024-04-28 12h03.52.743242 -0500,
None,21,white,0,17,17,17,0,10,10,10,55.24054629999955,,,,,,,,,,,,,,,55.21978010000021,55.24054629999955,55.3097805999987,,,,179138,001,2024-04-28_12h03.37.591,ArchivoPrueba,2024.1.1,None,2024-04-28 12h03.52.743242 -0500,
None,23,blue,0,17,17,17,0,11,11,11,55.338632699998925,,,,,,,,,,,,,,,55.310132200000226,55.338632699998925,55.41360139999961,,,,179138,001,2024-04-28_12h03.37.591,ArchivoPrueba,2024.1.1,None,2024-04-28 12h03.52.743242 -0500,
None,25,yellow,0,17,17,17,0,12,12,12,55.44000789999882,,,,,,,,,,,,,,,55.413945199999944,55.44000789999882,55.53199229999882,,,,179138,001,2024-04-28_12h03.37.591,ArchivoPrueba,2024.1.1,None,2024-04-28 12h03.52.743242 -0500,
None,27,orange,0,17,17,17,0,13,13,13,55.55699449999884,,,,,,,,,,,,,,,55.5326342999997,55.55699449999884,55.61141839999982,,,,179138,001,2024-04-28_12h03.37.591,ArchivoPrueba,2024.1.1,None,2024-04-28 12h03.52.743242 -0500,
None,29,brown,0,17,17,17,0,14,14,14,55.640584599999784,,,,,,,,,,,,,,,55.61170940000011,55.640584599999784,55.70947150000029,,,,179138,001,2024-04-28_12h03.37.591,ArchivoPrueba,2024.1.1,None,2024-04-28 12h03.52.743242 -0500,
None,31,purple,0,17,17,17,0,15,15,15,55.7404162999992,,,,,,,,,,,,,,,55.710278200000175,55.7404162999992,55.812695200000235,,,,179138,001,2024-04-28_12h03.37.591,ArchivoPrueba,2024.1.1,None,2024-04-28 12h03.52.743242 -0500,
None,33,green,0,17,17,17,0,16,16,16,55.83871650000037,,,,,,,,,,,,,,,55.81301960000019,55.83871650000037,55.912154499999815,,,,179138,001,2024-04-28_12h03.37.591,ArchivoPrueba,2024.1.1,None,2024-04-28 12h03.52.743242 -0500,
