PreguntaOff,PreguntaOn,Colors,Prueba.thisRepN,Prueba.thisTrialN,Prueba.thisN,Prueba.thisIndex,RepeticionOn.thisRepN,RepeticionOn.thisTrialN,RepeticionOn.thisN,RepeticionOn.thisIndex,thisRow.t,notes,introducción_3.started,introducción.started,mouse.started,introducción_3.stopped,mouse.x,mouse.y,mouse.leftButton,mouse.midButton,mouse.rightButton,mouse.time,Off.started,CondicionOff.started,Off.stopped,On.started,CondicionOn.started,On.stopped,participant,session,date,expName,psychopyVersion,frameRate,expStart,
,,,,,,,,,,,,,0.02662929999860353,0.04447909999908006,0.026291399999536225,1.280307699998957,[-0.1328125],[0.17447916666666666],[1],[0],[0],[1.252869500000088],,,,,,,260202,001,2024-04-28_12h15.07.510,ArchivoPrueba,2024.1.1,None,2024-04-28 12h15.20.358939 -0500,
¿Recuerda el recorrido que realiza desde su cama hasta la cocina de su residencia?,1,green,0,0,0,0,0,0,0,0,2.336677299999792,,,,,,,,,,,,1.2925113999990572,1.3208838999998989,2.294967199999519,2.305290199999945,2.336677299999792,2.3945525999988604,260202,001,2024-04-28_12h15.07.510,ArchivoPrueba,2024.1.1,None,2024-04-28 12h15.20.358939 -0500,
¿Recuerda el trayecto que hace desde su casa hasta su lugar de trabajo?,3,red,0,0,0,0,0,1,1,1,2.4197738000002573,,,,,,,,,,,,,,,2.394959499999459,2.4197738000002573,2.495296799999778,260202,001,2024-04-28_12h15.07.510,ArchivoPrueba,2024.1.1,None,2024-04-28 12h15.20.358939 -0500,
¿Recuerda  algún inconveniente que ha  experimentado en el camino de su residencia a su lugar de trabajo?,5,white,0,0,0,0,0,2,2,2,2.519686499999807,,,,,,,,,,,,,,,2.495601999999053,2.519686499999807,2.5943549999992683,260202,001,2024-04-28_12h15.07.510,ArchivoPrueba,2024.1.1,None,2024-04-28 12h15.20.358939 -0500,
¿Recuerda si hay algún lugar u objeto en su camino hacia el trabajo que le llame la atención?,7,blue,0,0,0,0,0,3,3,3,2.6198133999987476,,,,,,,,,,,,,,,2.594651999999769,2.6198133999987476,2.694081300000107,260202,001,2024-04-28_12h15.07.510,ArchivoPrueba,2024.1.1,None,2024-04-28 12h15.20.358939 -0500,
" ¿Recuerda el recorrido desde la entrada de su lugar de trabajo hasta su oficina, donde realiza sus funciones?",9,yellow,0,0,0,0,0,4,4,4,2.719662099998459,,,,,,,,,,,,,,,2.694410699999935,2.719662099998459,2.794205999998667,260202,001,2024-04-28_12h15.07.510,ArchivoPrueba,2024.1.1,None,2024-04-28 12h15.20.358939 -0500,
¿Recuerda alguna actividad que realice durante los viajes de regreso a casa desde el trabajo para relajarse?,11,orange,0,0,0,0,0,5,5,5,2.821061299999201,,,,,,,,,,,,,,,2.7945472999999765,2.821061299999201,2.8938314999995782,260202,001,2024-04-28_12h15.07.510,ArchivoPrueba,2024.1.1,None,2024-04-28 12h15.20.358939 -0500,
¿Recuerda el trayecto que realiza desde su casa hasta el lugar donde realiza sus compras?,13,brown,0,0,0,0,0,6,6,6,2.9207171999987622,,,,,,,,,,,,,,,2.8941226999995706,2.9207171999987622,2.9937910999997257,260202,001,2024-04-28_12h15.07.510,ArchivoPrueba,2024.1.1,None,2024-04-28 12h15.20.358939 -0500,
¿Recuerda alguna situación divertida o interesante que haya experimentado durante el recorrido hacia el lugar de compras?,15,purple,0,0,0,0,0,7,7,7,3.006882699999551,,,,,,,,,,,,,,,2.994147299999895,3.006882699999551,3.093976099999054,260202,001,2024-04-28_12h15.07.510,ArchivoPrueba,2024.1.1,None,2024-04-28 12h15.20.358939 -0500,
 ¿Recuerda qué es lo primero que ve al llegar al lugar donde realiza sus compras?,17,green,0,0,0,0,0,8,8,8,3.120636799998465,,,,,,,,,,,,,,,3.094275999999809,3.120636799998465,3.1943136999998387,260202,001,2024-04-28_12h15.07.510,ArchivoPrueba,2024.1.1,None,2024-04-28 12h15.20.358939 -0500,
¿Recuerda el recorrido desde su residencia hasta el centro de resonancia magnética?,19,red,0,0,0,0,0,9,9,9,3.2208273999985977,,,,,,,,,,,,,,,3.1945890999995754,3.2208273999985977,3.294455299999754,260202,001,2024-04-28_12h15.07.510,ArchivoPrueba,2024.1.1,None,2024-04-28 12h15.20.358939 -0500,
None,21,white,0,0,0,0,0,10,10,10,3.318856299998515,,,,,,,,,,,,,,,3.2947850999989896,3.318856299998515,3.393859199999497,260202,001,2024-04-28_12h15.07.510,ArchivoPrueba,2024.1.1,None,2024-04-28 12h15.20.358939 -0500,
None,23,blue,0,0,0,0,0,11,11,11,3.420507999999245,,,,,,,,,,,,,,,3.3941677999991953,3.420507999999245,3.4937469999986206,260202,001,2024-04-28_12h15.07.510,ArchivoPrueba,2024.1.1,None,2024-04-28 12h15.20.358939 -0500,
None,25,yellow,0,0,0,0,0,12,12,12,3.5205085999987205,,,,,,,,,,,,,,,3.494078300000183,3.5205085999987205,3.5936771999986377,260202,001,2024-04-28_12h15.07.510,ArchivoPrueba,2024.1.1,None,2024-04-28 12h15.20.358939 -0500,
None,27,orange,0,0,0,0,0,13,13,13,3.6204793999986578,,,,,,,,,,,,,,,3.59401859999889,3.6204793999986578,3.693514499998855,260202,001,2024-04-28_12h15.07.510,ArchivoPrueba,2024.1.1,None,2024-04-28 12h15.20.358939 -0500,
None,29,brown,0,0,0,0,0,14,14,14,3.7203543999985413,,,,,,,,,,,,,,,3.6938534999990225,3.7203543999985413,3.7935216999994736,260202,001,2024-04-28_12h15.07.510,ArchivoPrueba,2024.1.1,None,2024-04-28 12h15.20.358939 -0500,
None,31,purple,0,0,0,0,0,15,15,15,3.820353699999032,,,,,,,,,,,,,,,3.793860300000233,3.820353699999032,3.893117399999028,260202,001,2024-04-28_12h15.07.510,ArchivoPrueba,2024.1.1,None,2024-04-28 12h15.20.358939 -0500,
None,33,green,0,0,0,0,0,16,16,16,3.920086000000083,,,,,,,,,,,,,,,3.893393599999399,3.920086000000083,3.993525799998679,260202,001,2024-04-28_12h15.07.510,ArchivoPrueba,2024.1.1,None,2024-04-28 12h15.20.358939 -0500,
None,35,red,0,0,0,0,0,17,17,17,4.020131600000241,,,,,,,,,,,,,,,3.9938529999999446,4.020131600000241,4.09277689999908,260202,001,2024-04-28_12h15.07.510,ArchivoPrueba,2024.1.1,None,2024-04-28 12h15.20.358939 -0500,
None,37,white,0,0,0,0,0,18,18,18,4.119725299999118,,,,,,,,,,,,,,,4.09308880000026,4.119725299999118,4.19284819999848,260202,001,2024-04-28_12h15.07.510,ArchivoPrueba,2024.1.1,None,2024-04-28 12h15.20.358939 -0500,
None,39,blue,0,0,0,0,0,19,19,19,4.219634999999471,,,,,,,,,,,,,,,4.193153700000039,4.219634999999471,4.293385400000261,260202,001,2024-04-28_12h15.07.510,ArchivoPrueba,2024.1.1,None,2024-04-28 12h15.20.358939 -0500,
¿Recuerda el recorrido que realiza desde su cama hasta la cocina de su residencia?,1,green,0,0,0,0,,,,,,,,,,,,,,,,,,,,,,,260202,001,2024-04-28_12h15.07.510,ArchivoPrueba,2024.1.1,None,2024-04-28 12h15.20.358939 -0500,
¿Recuerda el recorrido que realiza desde su cama hasta la cocina de su residencia?,1,green,0,1,1,1,0,0,0,0,5.318682799999806,,,,,,,,,,,,4.293835799999215,4.318095099999482,5.292120699999941,5.302985799999078,5.318682799999806,5.392221799998879,260202,001,2024-04-28_12h15.07.510,ArchivoPrueba,2024.1.1,None,2024-04-28 12h15.20.358939 -0500,
¿Recuerda el trayecto que hace desde su casa hasta su lugar de trabajo?,3,red,0,1,1,1,0,1,1,1,5.418663700000252,,,,,,,,,,,,,,,5.392511399999421,5.418663700000252,5.491798399998515,260202,001,2024-04-28_12h15.07.510,ArchivoPrueba,2024.1.1,None,2024-04-28 12h15.20.358939 -0500,
¿Recuerda  algún inconveniente que ha  experimentado en el camino de su residencia a su lugar de trabajo?,5,white,0,1,1,1,0,2,2,2,5.518539099999543,,,,,,,,,,,,,,,5.492131599999993,5.518539099999543,5.591733499999464,260202,001,2024-04-28_12h15.07.510,ArchivoPrueba,2024.1.1,None,2024-04-28 12h15.20.358939 -0500,
¿Recuerda si hay algún lugar u objeto en su camino hacia el trabajo que le llame la atención?,7,blue,0,1,1,1,0,3,3,3,5.618602900000042,,,,,,,,,,,,,,,5.592121599998791,5.618602900000042,5.691418700000213,260202,001,2024-04-28_12h15.07.510,ArchivoPrueba,2024.1.1,None,2024-04-28 12h15.20.358939 -0500,
" ¿Recuerda el recorrido desde la entrada de su lugar de trabajo hasta su oficina, donde realiza sus funciones?",9,yellow,0,1,1,1,0,4,4,4,5.704730499999641,,,,,,,,,,,,,,,5.6917118999990635,5.704730499999641,5.792069199998878,260202,001,2024-04-28_12h15.07.510,ArchivoPrueba,2024.1.1,None,2024-04-28 12h15.20.358939 -0500,
¿Recuerda alguna actividad que realice durante los viajes de regreso a casa desde el trabajo para relajarse?,11,orange,0,1,1,1,0,5,5,5,5.818601699998908,,,,,,,,,,,,,,,5.792385900000227,5.818601699998908,5.891842799999722,260202,001,2024-04-28_12h15.07.510,ArchivoPrueba,2024.1.1,None,2024-04-28 12h15.20.358939 -0500,
¿Recuerda el trayecto que realiza desde su casa hasta el lugar donde realiza sus compras?,13,brown,0,1,1,1,0,6,6,6,5.918432599999505,,,,,,,,,,,,,,,5.892153599999801,5.918432599999505,5.991300099998625,260202,001,2024-04-28_12h15.07.510,ArchivoPrueba,2024.1.1,None,2024-04-28 12h15.20.358939 -0500,
¿Recuerda alguna situación divertida o interesante que haya experimentado durante el recorrido hacia el lugar de compras?,15,purple,0,1,1,1,0,7,7,7,6.018383699998594,,,,,,,,,,,,,,,5.991604199998619,6.018383699998594,6.091148199999225,260202,001,2024-04-28_12h15.07.510,ArchivoPrueba,2024.1.1,None,2024-04-28 12h15.20.358939 -0500,
 ¿Recuerda qué es lo primero que ve al llegar al lugar donde realiza sus compras?,17,green,0,1,1,1,0,8,8,8,6.118341800000053,,,,,,,,,,,,,,,6.091452999999092,6.118341800000053,6.19108309999865,260202,001,2024-04-28_12h15.07.510,ArchivoPrueba,2024.1.1,None,2024-04-28 12h15.20.358939 -0500,
¿Recuerda el recorrido desde su residencia hasta el centro de resonancia magnética?,19,red,0,1,1,1,0,9,9,9,6.218230200000107,,,,,,,,,,,,,,,6.191375499998685,6.218230200000107,6.290827699998772,260202,001,2024-04-28_12h15.07.510,ArchivoPrueba,2024.1.1,None,2024-04-28 12h15.20.358939 -0500,
None,21,white,0,1,1,1,0,10,10,10,6.318088199999693,,,,,,,,,,,,,,,6.29111599999851,6.318088199999693,6.391259799998807,260202,001,2024-04-28_12h15.07.510,ArchivoPrueba,2024.1.1,None,2024-04-28 12h15.20.358939 -0500,
None,23,blue,0,1,1,1,0,11,11,11,6.417687199998909,,,,,,,,,,,,,,,6.391568399998505,6.417687199998909,6.490565899999638,260202,001,2024-04-28_12h15.07.510,ArchivoPrueba,2024.1.1,None,2024-04-28 12h15.20.358939 -0500,
None,25,yellow,0,1,1,1,0,12,12,12,6.504061499999807,,,,,,,,,,,,,,,6.490904999998747,6.504061499999807,6.591626699999324,260202,001,2024-04-28_12h15.07.510,ArchivoPrueba,2024.1.1,None,2024-04-28 12h15.20.358939 -0500,
None,27,orange,0,1,1,1,0,13,13,13,6.61777549999897,,,,,,,,,,,,,,,6.592022299999371,6.61777549999897,6.691239099998711,260202,001,2024-04-28_12h15.07.510,ArchivoPrueba,2024.1.1,None,2024-04-28 12h15.20.358939 -0500,
None,29,brown,0,1,1,1,0,14,14,14,6.717735000000175,,,,,,,,,,,,,,,6.691510199998447,6.717735000000175,6.790512399998988,260202,001,2024-04-28_12h15.07.510,ArchivoPrueba,2024.1.1,None,2024-04-28 12h15.20.358939 -0500,
None,31,purple,0,1,1,1,0,15,15,15,6.817481500000213,,,,,,,,,,,,,,,6.790859299999283,6.817481500000213,6.890867599999183,260202,001,2024-04-28_12h15.07.510,ArchivoPrueba,2024.1.1,None,2024-04-28 12h15.20.358939 -0500,
None,33,green,0,1,1,1,0,16,16,16,6.917646899999454,,,,,,,,,,,,,,,6.891162299998541,6.917646899999454,6.990736799998558,260202,001,2024-04-28_12h15.07.510,ArchivoPrueba,2024.1.1,None,2024-04-28 12h15.20.358939 -0500,
None,35,red,0,1,1,1,0,17,17,17,7.017574699999386,,,,,,,,,,,,,,,6.991070699999909,7.017574699999386,7.090431200000239,260202,001,2024-04-28_12h15.07.510,ArchivoPrueba,2024.1.1,None,2024-04-28 12h15.20.358939 -0500,
None,37,white,0,1,1,1,0,18,18,18,7.117402299998503,,,,,,,,,,,,,,,7.090793699999267,7.117402299998503,7.19022810000024,260202,001,2024-04-28_12h15.07.510,ArchivoPrueba,2024.1.1,None,2024-04-28 12h15.20.358939 -0500,
None,39,blue,0,1,1,1,0,19,19,19,7.217372199998863,,,,,,,,,,,,,,,7.190529499999684,7.217372199998863,7.290573799999038,260202,001,2024-04-28_12h15.07.510,ArchivoPrueba,2024.1.1,None,2024-04-28 12h15.20.358939 -0500,
¿Recuerda el trayecto que hace desde su casa hasta su lugar de trabajo?,3,red,0,1,1,1,,,,,,,,,,,,,,,,,,,,,,,260202,001,2024-04-28_12h15.07.510,ArchivoPrueba,2024.1.1,None,2024-04-28 12h15.20.358939 -0500,
¿Recuerda el recorrido que realiza desde su cama hasta la cocina de su residencia?,1,green,0,2,2,2,0,0,0,0,8.316130999999586,,,,,,,,,,,,7.291036200000235,7.3156906999993225,8.289633899999899,8.299248199999056,8.316130999999586,8.389756499998839,260202,001,2024-04-28_12h15.07.510,ArchivoPrueba,2024.1.1,None,2024-04-28 12h15.20.358939 -0500,
¿Recuerda el trayecto que hace desde su casa hasta su lugar de trabajo?,3,red,0,2,2,2,0,1,1,1,8.416137000000163,,,,,,,,,,,,,,,8.390030200000183,8.416137000000163,8.48923300000024,260202,001,2024-04-28_12h15.07.510,ArchivoPrueba,2024.1.1,None,2024-04-28 12h15.20.358939 -0500,
¿Recuerda  algún inconveniente que ha  experimentado en el camino de su residencia a su lugar de trabajo?,5,white,0,2,2,2,0,2,2,2,8.516136700000061,,,,,,,,,,,,,,,8.48958440000024,8.516136700000061,8.589178099999117,260202,001,2024-04-28_12h15.07.510,ArchivoPrueba,2024.1.1,None,2024-04-28 12h15.20.358939 -0500,
¿Recuerda si hay algún lugar u objeto en su camino hacia el trabajo que le llame la atención?,7,blue,0,2,2,2,0,3,3,3,8.616226899999674,,,,,,,,,,,,,,,8.589524299999539,8.616226899999674,8.68891529999928,260202,001,2024-04-28_12h15.07.510,ArchivoPrueba,2024.1.1,None,2024-04-28 12h15.20.358939 -0500,
" ¿Recuerda el recorrido desde la entrada de su lugar de trabajo hasta su oficina, donde realiza sus funciones?",9,yellow,0,2,2,2,0,4,4,4,8.716266699999323,,,,,,,,,,,,,,,8.689287699999113,8.716266699999323,8.788941999999224,260202,001,2024-04-28_12h15.07.510,ArchivoPrueba,2024.1.1,None,2024-04-28 12h15.20.358939 -0500,
¿Recuerda alguna actividad que realice durante los viajes de regreso a casa desde el trabajo para relajarse?,11,orange,0,2,2,2,0,5,5,5,8.816062099998817,,,,,,,,,,,,,,,8.789295099999435,8.816062099998817,8.888825399999405,260202,001,2024-04-28_12h15.07.510,ArchivoPrueba,2024.1.1,None,2024-04-28 12h15.20.358939 -0500,
¿Recuerda el trayecto que realiza desde su casa hasta el lugar donde realiza sus compras?,13,brown,0,2,2,2,0,6,6,6,8.91589009999916,,,,,,,,,,,,,,,8.889125899999271,8.91589009999916,8.988999999999578,260202,001,2024-04-28_12h15.07.510,ArchivoPrueba,2024.1.1,None,2024-04-28 12h15.20.358939 -0500,
¿Recuerda alguna situación divertida o interesante que haya experimentado durante el recorrido hacia el lugar de compras?,15,purple,0,2,2,2,0,7,7,7,9.015801399998963,,,,,,,,,,,,,,,8.98935849999907,9.015801399998963,9.088804499999242,260202,001,2024-04-28_12h15.07.510,ArchivoPrueba,2024.1.1,None,2024-04-28 12h15.20.358939 -0500,
 ¿Recuerda qué es lo primero que ve al llegar al lugar donde realiza sus compras?,17,green,0,2,2,2,0,8,8,8,9.115962500000023,,,,,,,,,,,,,,,9.08910619999915,9.115962500000023,9.188651699998445,260202,001,2024-04-28_12h15.07.510,ArchivoPrueba,2024.1.1,None,2024-04-28 12h15.20.358939 -0500,
¿Recuerda el recorrido desde su residencia hasta el centro de resonancia magnética?,19,red,0,2,2,2,0,9,9,9,9.215502099999867,,,,,,,,,,,,,,,9.188985400000092,9.215502099999867,9.28838480000013,260202,001,2024-04-28_12h15.07.510,ArchivoPrueba,2024.1.1,None,2024-04-28 12h15.20.358939 -0500,
None,21,white,0,2,2,2,0,10,10,10,9.315131800000017,,,,,,,,,,,,,,,9.28867419999915,9.315131800000017,9.388289900000018,260202,001,2024-04-28_12h15.07.510,ArchivoPrueba,2024.1.1,None,2024-04-28 12h15.20.358939 -0500,
None,23,blue,0,2,2,2,0,11,11,11,9.415261299998747,,,,,,,,,,,,,,,9.388606799999252,9.415261299998747,9.488941199999317,260202,001,2024-04-28_12h15.07.510,ArchivoPrueba,2024.1.1,None,2024-04-28 12h15.20.358939 -0500,
None,25,yellow,0,2,2,2,0,12,12,12,9.515174799998931,,,,,,,,,,,,,,,9.48932539999987,9.515174799998931,9.588963199999853,260202,001,2024-04-28_12h15.07.510,ArchivoPrueba,2024.1.1,None,2024-04-28 12h15.20.358939 -0500,
None,27,orange,0,2,2,2,0,13,13,13,9.615334599999187,,,,,,,,,,,,,,,9.589324200000192,9.615334599999187,9.688692899999296,260202,001,2024-04-28_12h15.07.510,ArchivoPrueba,2024.1.1,None,2024-04-28 12h15.20.358939 -0500,
None,29,brown,0,2,2,2,0,14,14,14,9.715058899999349,,,,,,,,,,,,,,,9.688965800000005,9.715058899999349,9.787961999998515,260202,001,2024-04-28_12h15.07.510,ArchivoPrueba,2024.1.1,None,2024-04-28 12h15.20.358939 -0500,
None,31,purple,0,2,2,2,0,15,15,15,9.814990699998816,,,,,,,,,,,,,,,9.788323799999489,9.814990699998816,9.888230099999419,260202,001,2024-04-28_12h15.07.510,ArchivoPrueba,2024.1.1,None,2024-04-28 12h15.20.358939 -0500,
None,33,green,0,2,2,2,0,16,16,16,9.915144200000213,,,,,,,,,,,,,,,9.888548699998864,9.915144200000213,9.987682199998744,260202,001,2024-04-28_12h15.07.510,ArchivoPrueba,2024.1.1,None,2024-04-28 12h15.20.358939 -0500,
None,35,red,0,2,2,2,0,17,17,17,10.014889799998855,,,,,,,,,,,,,,,9.987954199999876,10.014889799998855,10.08754979999867,260202,001,2024-04-28_12h15.07.510,ArchivoPrueba,2024.1.1,None,2024-04-28 12h15.20.358939 -0500,
None,37,white,0,2,2,2,0,18,18,18,10.114967199999228,,,,,,,,,,,,,,,10.087845099998958,10.114967199999228,10.187443199998597,260202,001,2024-04-28_12h15.07.510,ArchivoPrueba,2024.1.1,None,2024-04-28 12h15.20.358939 -0500,
None,39,blue,0,2,2,2,0,19,19,19,10.214877799999158,,,,,,,,,,,,,,,10.187738599999648,10.214877799999158,10.28744259999985,260202,001,2024-04-28_12h15.07.510,ArchivoPrueba,2024.1.1,None,2024-04-28 12h15.20.358939 -0500,
¿Recuerda  algún inconveniente que ha  experimentado en el camino de su residencia a su lugar de trabajo?,5,white,0,2,2,2,,,,,,,,,,,,,,,,,,,,,,,260202,001,2024-04-28_12h15.07.510,ArchivoPrueba,2024.1.1,None,2024-04-28 12h15.20.358939 -0500,
¿Recuerda el recorrido que realiza desde su cama hasta la cocina de su residencia?,1,green,0,3,3,3,0,0,0,0,11.313710999998875,,,,,,,,,,,,10.287817700000232,10.312977899999169,11.287043399999675,11.296766899999056,11.313710999998875,11.387251499998456,260202,001,2024-04-28_12h15.07.510,ArchivoPrueba,2024.1.1,None,2024-04-28 12h15.20.358939 -0500,
¿Recuerda el trayecto que hace desde su casa hasta su lugar de trabajo?,3,red,0,3,3,3,0,1,1,1,11.413681500000166,,,,,,,,,,,,,,,11.387610199999472,11.413681500000166,11.486944499998572,260202,001,2024-04-28_12h15.07.510,ArchivoPrueba,2024.1.1,None,2024-04-28 12h15.20.358939 -0500,
¿Recuerda  algún inconveniente que ha  experimentado en el camino de su residencia a su lugar de trabajo?,5,white,0,3,3,3,0,2,2,2,11.513566199999332,,,,,,,,,,,,,,,11.48722110000017,11.513566199999332,11.586943999998766,260202,001,2024-04-28_12h15.07.510,ArchivoPrueba,2024.1.1,None,2024-04-28 12h15.20.358939 -0500,
¿Recuerda si hay algún lugar u objeto en su camino hacia el trabajo que le llame la atención?,7,blue,0,3,3,3,0,3,3,3,11.61362199999894,,,,,,,,,,,,,,,11.587220299999899,11.61362199999894,11.6867831999989,260202,001,2024-04-28_12h15.07.510,ArchivoPrueba,2024.1.1,None,2024-04-28 12h15.20.358939 -0500,
" ¿Recuerda el recorrido desde la entrada de su lugar de trabajo hasta su oficina, donde realiza sus funciones?",9,yellow,0,3,3,3,0,4,4,4,11.713546099999803,,,,,,,,,,,,,,,11.687061699998594,11.713546099999803,11.786860099999103,260202,001,2024-04-28_12h15.07.510,ArchivoPrueba,2024.1.1,None,2024-04-28 12h15.20.358939 -0500,
¿Recuerda alguna actividad que realice durante los viajes de regreso a casa desde el trabajo para relajarse?,11,orange,0,3,3,3,0,5,5,5,11.81337319999875,,,,,,,,,,,,,,,11.787133199999516,11.81337319999875,11.887133799998992,260202,001,2024-04-28_12h15.07.510,ArchivoPrueba,2024.1.1,None,2024-04-28 12h15.20.358939 -0500,
¿Recuerda el trayecto que realiza desde su casa hasta el lugar donde realiza sus compras?,13,brown,0,3,3,3,0,6,6,6,11.9132625000002,,,,,,,,,,,,,,,11.887460500000088,11.9132625000002,11.986447299999782,260202,001,2024-04-28_12h15.07.510,ArchivoPrueba,2024.1.1,None,2024-04-28 12h15.20.358939 -0500,
¿Recuerda alguna situación divertida o interesante que haya experimentado durante el recorrido hacia el lugar de compras?,15,purple,0,3,3,3,0,7,7,7,12.013343999999051,,,,,,,,,,,,,,,11.986786999999822,12.013343999999051,12.086101899998539,260202,001,2024-04-28_12h15.07.510,ArchivoPrueba,2024.1.1,None,2024-04-28 12h15.20.358939 -0500,
 ¿Recuerda qué es lo primero que ve al llegar al lugar donde realiza sus compras?,17,green,0,3,3,3,0,8,8,8,12.113056000000142,,,,,,,,,,,,,,,12.08640529999866,12.113056000000142,12.185958899999605,260202,001,2024-04-28_12h15.07.510,ArchivoPrueba,2024.1.1,None,2024-04-28 12h15.20.358939 -0500,
¿Recuerda el recorrido desde su residencia hasta el centro de resonancia magnética?,19,red,0,3,3,3,0,9,9,9,12.21300059999885,,,,,,,,,,,,,,,12.186263300000064,12.21300059999885,12.286072299999432,260202,001,2024-04-28_12h15.07.510,ArchivoPrueba,2024.1.1,None,2024-04-28 12h15.20.358939 -0500,
None,21,white,0,3,3,3,0,10,10,10,12.312749999999141,,,,,,,,,,,,,,,12.28634449999845,12.312749999999141,12.385514699999476,260202,001,2024-04-28_12h15.07.510,ArchivoPrueba,2024.1.1,None,2024-04-28 12h15.20.358939 -0500,
None,23,blue,0,3,3,3,0,11,11,11,12.41285009999956,,,,,,,,,,,,,,,12.38586629999918,12.41285009999956,12.486009599999306,260202,001,2024-04-28_12h15.07.510,ArchivoPrueba,2024.1.1,None,2024-04-28 12h15.20.358939 -0500,
None,25,yellow,0,3,3,3,0,12,12,12,12.512787499999831,,,,,,,,,,,,,,,12.486317599999893,12.512787499999831,12.58610619999854,260202,001,2024-04-28_12h15.07.510,ArchivoPrueba,2024.1.1,None,2024-04-28 12h15.20.358939 -0500,
None,27,orange,0,3,3,3,0,13,13,13,12.612624199999118,,,,,,,,,,,,,,,12.586379099999249,12.612624199999118,12.686154199998782,260202,001,2024-04-28_12h15.07.510,ArchivoPrueba,2024.1.1,None,2024-04-28 12h15.20.358939 -0500,
None,29,brown,0,3,3,3,0,14,14,14,12.712628499999482,,,,,,,,,,,,,,,12.686428999999407,12.712628499999482,12.786199399999532,260202,001,2024-04-28_12h15.07.510,ArchivoPrueba,2024.1.1,None,2024-04-28 12h15.20.358939 -0500,
None,31,purple,0,3,3,3,0,15,15,15,12.812597899999673,,,,,,,,,,,,,,,12.786479499998677,12.812597899999673,12.885941599999569,260202,001,2024-04-28_12h15.07.510,ArchivoPrueba,2024.1.1,None,2024-04-28 12h15.20.358939 -0500,
None,33,green,0,3,3,3,0,16,16,16,12.912456299998667,,,,,,,,,,,,,,,12.886255100000199,12.912456299998667,12.9856908999991,260202,001,2024-04-28_12h15.07.510,ArchivoPrueba,2024.1.1,None,2024-04-28 12h15.20.358939 -0500,
None,35,red,0,3,3,3,0,17,17,17,13.012345899998763,,,,,,,,,,,,,,,12.986000599999898,13.012345899998763,13.085695899999337,260202,001,2024-04-28_12h15.07.510,ArchivoPrueba,2024.1.1,None,2024-04-28 12h15.20.358939 -0500,
None,37,white,0,3,3,3,0,18,18,18,13.1120581999985,,,,,,,,,,,,,,,13.086006999999881,13.1120581999985,13.185120399999505,260202,001,2024-04-28_12h15.07.510,ArchivoPrueba,2024.1.1,None,2024-04-28 12h15.20.358939 -0500,
None,39,blue,0,3,3,3,0,19,19,19,13.211775300000227,,,,,,,,,,,,,,,13.185413699999117,13.211775300000227,13.285320799999681,260202,001,2024-04-28_12h15.07.510,ArchivoPrueba,2024.1.1,None,2024-04-28 12h15.20.358939 -0500,
¿Recuerda si hay algún lugar u objeto en su camino hacia el trabajo que le llame la atención?,7,blue,0,3,3,3,,,,,,,,,,,,,,,,,,,,,,,260202,001,2024-04-28_12h15.07.510,ArchivoPrueba,2024.1.1,None,2024-04-28 12h15.20.358939 -0500,
¿Recuerda el recorrido que realiza desde su cama hasta la cocina de su residencia?,1,green,0,4,4,4,0,0,0,0,14.31134529999872,,,,,,,,,,,,13.28572449999956,13.31045180000001,14.284426399999575,14.295035899998766,14.31134529999872,14.384177299998555,260202,001,2024-04-28_12h15.07.510,ArchivoPrueba,2024.1.1,None,2024-04-28 12h15.20.358939 -0500,
¿Recuerda el trayecto que hace desde su casa hasta su lugar de trabajo?,3,red,0,4,4,4,0,1,1,1,14.411084599998503,,,,,,,,,,,,,,,14.384465699999055,14.411084599998503,14.483924599999227,260202,001,2024-04-28_12h15.07.510,ArchivoPrueba,2024.1.1,None,2024-04-28 12h15.20.358939 -0500,
¿Recuerda  algún inconveniente que ha  experimentado en el camino de su residencia a su lugar de trabajo?,5,white,0,4,4,4,0,2,2,2,14.511207199999262,,,,,,,,,,,,,,,14.484254999999393,14.511207199999262,14.583885899999586,260202,001,2024-04-28_12h15.07.510,ArchivoPrueba,2024.1.1,None,2024-04-28 12h15.20.358939 -0500,
¿Recuerda si hay algún lugar u objeto en su camino hacia el trabajo que le llame la atención?,7,blue,0,4,4,4,0,3,3,3,14.610766199999489,,,,,,,,,,,,,,,14.584182699998564,14.610766199999489,14.683947199999238,260202,001,2024-04-28_12h15.07.510,ArchivoPrueba,2024.1.1,None,2024-04-28 12h15.20.358939 -0500,
" ¿Recuerda el recorrido desde la entrada de su lugar de trabajo hasta su oficina, donde realiza sus funciones?",9,yellow,0,4,4,4,0,4,4,4,14.710739999998623,,,,,,,,,,,,,,,14.684224200000244,14.710739999998623,14.783878499998536,260202,001,2024-04-28_12h15.07.510,ArchivoPrueba,2024.1.1,None,2024-04-28 12h15.20.358939 -0500,
¿Recuerda alguna actividad que realice durante los viajes de regreso a casa desde el trabajo para relajarse?,11,orange,0,4,4,4,0,5,5,5,14.810643199998594,,,,,,,,,,,,,,,14.784155800000008,14.810643199998594,14.884996199998568,260202,001,2024-04-28_12h15.07.510,ArchivoPrueba,2024.1.1,None,2024-04-28 12h15.20.358939 -0500,
¿Recuerda el trayecto que realiza desde su casa hasta el lugar donde realiza sus compras?,13,brown,0,4,4,4,0,6,6,6,14.911004599998705,,,,,,,,,,,,,,,14.885272800000166,14.911004599998705,14.983775599999717,260202,001,2024-04-28_12h15.07.510,ArchivoPrueba,2024.1.1,None,2024-04-28 12h15.20.358939 -0500,
¿Recuerda alguna situación divertida o interesante que haya experimentado durante el recorrido hacia el lugar de compras?,15,purple,0,4,4,4,0,7,7,7,15.010506099999475,,,,,,,,,,,,,,,14.98407909999878,15.010506099999475,15.083435599999575,260202,001,2024-04-28_12h15.07.510,ArchivoPrueba,2024.1.1,None,2024-04-28 12h15.20.358939 -0500,
 ¿Recuerda qué es lo primero que ve al llegar al lugar donde realiza sus compras?,17,green,0,4,4,4,0,8,8,8,15.110575400000016,,,,,,,,,,,,,,,15.083815099998901,15.110575400000016,15.183319799998571,260202,001,2024-04-28_12h15.07.510,ArchivoPrueba,2024.1.1,None,2024-04-28 12h15.20.358939 -0500,
¿Recuerda el recorrido desde su residencia hasta el centro de resonancia magnética?,19,red,0,4,4,4,0,9,9,9,15.210498399999778,,,,,,,,,,,,,,,15.183672499999375,15.210498399999778,15.283485799998743,260202,001,2024-04-28_12h15.07.510,ArchivoPrueba,2024.1.1,None,2024-04-28 12h15.20.358939 -0500,
None,21,white,0,4,4,4,0,10,10,10,15.310248099998716,,,,,,,,,,,,,,,15.283854799999972,15.310248099998716,15.383031199999095,260202,001,2024-04-28_12h15.07.510,ArchivoPrueba,2024.1.1,None,2024-04-28 12h15.20.358939 -0500,
None,23,blue,0,4,4,4,0,11,11,11,15.410233299999163,,,,,,,,,,,,,,,15.383350999998584,15.410233299999163,15.483010699999795,260202,001,2024-04-28_12h15.07.510,ArchivoPrueba,2024.1.1,None,2024-04-28 12h15.20.358939 -0500,
None,25,yellow,0,4,4,4,0,12,12,12,15.510248599999613,,,,,,,,,,,,,,,15.483307999998942,15.510248599999613,15.583030199999484,260202,001,2024-04-28_12h15.07.510,ArchivoPrueba,2024.1.1,None,2024-04-28 12h15.20.358939 -0500,
None,27,orange,0,4,4,4,0,13,13,13,15.610061100000166,,,,,,,,,,,,,,,15.583334999999352,15.610061100000166,15.683070199998838,260202,001,2024-04-28_12h15.07.510,ArchivoPrueba,2024.1.1,None,2024-04-28 12h15.20.358939 -0500,
None,29,brown,0,4,4,4,0,14,14,14,15.709988999999041,,,,,,,,,,,,,,,15.683341299998574,15.709988999999041,15.782759399999122,260202,001,2024-04-28_12h15.07.510,ArchivoPrueba,2024.1.1,None,2024-04-28 12h15.20.358939 -0500,
None,31,purple,0,4,4,4,0,15,15,15,15.809824199999639,,,,,,,,,,,,,,,15.783073399999921,15.809824199999639,15.883240499999374,260202,001,2024-04-28_12h15.07.510,ArchivoPrueba,2024.1.1,None,2024-04-28 12h15.20.358939 -0500,
None,33,green,0,4,4,4,0,16,16,16,15.909587999998621,,,,,,,,,,,,,,,15.883567599999878,15.909587999998621,15.983152299999347,260202,001,2024-04-28_12h15.07.510,ArchivoPrueba,2024.1.1,None,2024-04-28 12h15.20.358939 -0500,
None,35,red,0,4,4,4,0,17,17,17,16.009596699999747,,,,,,,,,,,,,,,15.983425099999295,16.009596699999747,16.082611599998927,260202,001,2024-04-28_12h15.07.510,ArchivoPrueba,2024.1.1,None,2024-04-28 12h15.20.358939 -0500,
None,37,white,0,4,4,4,0,18,18,18,16.109418000000005,,,,,,,,,,,,,,,16.082952699998714,16.109418000000005,16.182848399999784,260202,001,2024-04-28_12h15.07.510,ArchivoPrueba,2024.1.1,None,2024-04-28 12h15.20.358939 -0500,
None,39,blue,0,4,4,4,0,19,19,19,16.20946609999919,,,,,,,,,,,,,,,16.18312849999893,16.20946609999919,16.282900099999097,260202,001,2024-04-28_12h15.07.510,ArchivoPrueba,2024.1.1,None,2024-04-28 12h15.20.358939 -0500,
" ¿Recuerda el recorrido desde la entrada de su lugar de trabajo hasta su oficina, donde realiza sus funciones?",9,yellow,0,4,4,4,,,,,,,,,,,,,,,,,,,,,,,260202,001,2024-04-28_12h15.07.510,ArchivoPrueba,2024.1.1,None,2024-04-28 12h15.20.358939 -0500,
,,,,,,,,,,,16.309693600000173,,,,,,,,,,,,16.283505299999888,16.309693600000173,,,,,,,,,,,,
