PreguntaOff,PreguntaOn,Colors,Prueba.thisRepN,Prueba.thisTrialN,Prueba.thisN,Prueba.thisIndex,RepeticionOn.thisRepN,RepeticionOn.thisTrialN,RepeticionOn.thisN,RepeticionOn.thisIndex,thisRow.t,notes,introducción_3.started,introducción.started,mouse.started,introducción_3.stopped,mouse.x,mouse.y,mouse.leftButton,mouse.midButton,mouse.rightButton,mouse.time,Off.started,CondicionOff.started,Off.stopped,On.started,CondicionOn.started,On.stopped,participant,session,date,expName,psychopyVersion,frameRate,expStart,
,,,,,,,,,,,,,0.020387299999129027,0.044031199999153614,0.020036199999594828,1.669003299999531,[-0.13151041666666666],[0.15755208333333334],[1],[0],[0],[1.6478021999992052],,,,,,,584891,001,2024-04-28_12h05.51.758,ArchivoPrueba,2024.1.1,None,2024-04-28 12h06.14.539787 -0500,
¿Recuerda el recorrido que realiza desde su cama hasta la cocina de su residencia?,1,green,0,0,0,0,0,0,0,0,2.724705399999948,,,,,,,,,,,,1.6807107999993605,1.708977699998286,2.6831412999999884,2.6940828999995574,2.724705399999948,2.782838199998878,584891,001,2024-04-28_12h05.51.758,ArchivoPrueba,2024.1.1,None,2024-04-28 12h06.14.539787 -0500,
¿Recuerda el trayecto que hace desde su casa hasta su lugar de trabajo?,3,red,0,0,0,0,0,1,1,1,2.8077327999999397,,,,,,,,,,,,,,,2.7831139999998413,2.8077327999999397,2.8829335999998875,584891,001,2024-04-28_12h05.51.758,ArchivoPrueba,2024.1.1,None,2024-04-28 12h06.14.539787 -0500,
¿Recuerda  algún inconveniente que ha  experimentado en el camino de su residencia a su lugar de trabajo?,5,white,0,0,0,0,0,2,2,2,2.9077217999983986,,,,,,,,,,,,,,,2.8832069000000047,2.9077217999983986,2.9826626999984,584891,001,2024-04-28_12h05.51.758,ArchivoPrueba,2024.1.1,None,2024-04-28 12h06.14.539787 -0500,
¿Recuerda si hay algún lugar u objeto en su camino hacia el trabajo que le llame la atención?,7,blue,0,0,0,0,0,3,3,3,3.007538099998783,,,,,,,,,,,,,,,2.9829542999996193,3.007538099998783,3.08315169999878,584891,001,2024-04-28_12h05.51.758,ArchivoPrueba,2024.1.1,None,2024-04-28 12h06.14.539787 -0500,
" ¿Recuerda el recorrido desde la entrada de su lugar de trabajo hasta su oficina, donde realiza sus funciones?",9,yellow,0,0,0,0,0,4,4,4,3.107633799998439,,,,,,,,,,,,,,,3.08350099999916,3.107633799998439,3.182253099999798,584891,001,2024-04-28_12h05.51.758,ArchivoPrueba,2024.1.1,None,2024-04-28 12h06.14.539787 -0500,
¿Recuerda alguna actividad que realice durante los viajes de regreso a casa desde el trabajo para relajarse?,11,orange,0,0,0,0,0,5,5,5,3.2093206999998074,,,,,,,,,,,,,,,3.1826304999995045,3.2093206999998074,3.282610399999612,584891,001,2024-04-28_12h05.51.758,ArchivoPrueba,2024.1.1,None,2024-04-28 12h06.14.539787 -0500,
¿Recuerda el trayecto que realiza desde su casa hasta el lugar donde realiza sus compras?,13,brown,0,0,0,0,0,6,6,6,3.3093015999984345,,,,,,,,,,,,,,,3.28288689999863,3.3093015999984345,3.3825291999983165,584891,001,2024-04-28_12h05.51.758,ArchivoPrueba,2024.1.1,None,2024-04-28 12h06.14.539787 -0500,
¿Recuerda alguna situación divertida o interesante que haya experimentado durante el recorrido hacia el lugar de compras?,15,purple,0,0,0,0,0,7,7,7,3.4092586999995547,,,,,,,,,,,,,,,3.3828178999992815,3.4092586999995547,3.482318499998655,584891,001,2024-04-28_12h05.51.758,ArchivoPrueba,2024.1.1,None,2024-04-28 12h06.14.539787 -0500,
 ¿Recuerda qué es lo primero que ve al llegar al lugar donde realiza sus compras?,17,green,0,0,0,0,0,8,8,8,3.5088727999991534,,,,,,,,,,,,,,,3.4826438999989477,3.5088727999991534,3.5825135999984923,584891,001,2024-04-28_12h05.51.758,ArchivoPrueba,2024.1.1,None,2024-04-28 12h06.14.539787 -0500,
¿Recuerda el recorrido desde su residencia hasta el centro de resonancia magnética?,19,red,0,0,0,0,0,9,9,9,3.6089078999993944,,,,,,,,,,,,,,,3.5828355999983614,3.6089078999993944,3.6818804999984422,584891,001,2024-04-28_12h05.51.758,ArchivoPrueba,2024.1.1,None,2024-04-28 12h06.14.539787 -0500,
None,21,white,0,0,0,0,0,10,10,10,3.707157599999846,,,,,,,,,,,,,,,3.6821974999984377,3.707157599999846,3.781969499999832,584891,001,2024-04-28_12h05.51.758,ArchivoPrueba,2024.1.1,None,2024-04-28 12h06.14.539787 -0500,
None,23,blue,0,0,0,0,0,11,11,11,3.8088240999986738,,,,,,,,,,,,,,,3.782243399999061,3.8088240999986738,3.8820895999997447,584891,001,2024-04-28_12h05.51.758,ArchivoPrueba,2024.1.1,None,2024-04-28 12h06.14.539787 -0500,
None,25,yellow,0,0,0,0,0,12,12,12,3.9085564999986673,,,,,,,,,,,,,,,3.882355899999311,3.9085564999986673,3.981843300000037,584891,001,2024-04-28_12h05.51.758,ArchivoPrueba,2024.1.1,None,2024-04-28 12h06.14.539787 -0500,
None,27,orange,0,0,0,0,0,13,13,13,4.008301299998493,,,,,,,,,,,,,,,3.9821451999996498,4.008301299998493,4.082182699999976,584891,001,2024-04-28_12h05.51.758,ArchivoPrueba,2024.1.1,None,2024-04-28 12h06.14.539787 -0500,
None,29,brown,0,0,0,0,0,14,14,14,4.108443499999339,,,,,,,,,,,,,,,4.082546999999977,4.108443499999339,4.182448399998975,584891,001,2024-04-28_12h05.51.758,ArchivoPrueba,2024.1.1,None,2024-04-28 12h06.14.539787 -0500,
None,31,purple,0,0,0,0,0,15,15,15,4.208307399998375,,,,,,,,,,,,,,,4.1827798999984225,4.208307399998375,4.282354299999497,584891,001,2024-04-28_12h05.51.758,ArchivoPrueba,2024.1.1,None,2024-04-28 12h06.14.539787 -0500,
None,33,green,0,0,0,0,0,16,16,16,4.3082146999986435,,,,,,,,,,,,,,,4.28272189999916,4.3082146999986435,4.382265499998539,584891,001,2024-04-28_12h05.51.758,ArchivoPrueba,2024.1.1,None,2024-04-28 12h06.14.539787 -0500,
None,35,red,0,0,0,0,0,17,17,17,4.40831739999885,,,,,,,,,,,,,,,4.382635299998583,4.40831739999885,4.481302599999253,584891,001,2024-04-28_12h05.51.758,ArchivoPrueba,2024.1.1,None,2024-04-28 12h06.14.539787 -0500,
None,37,white,0,0,0,0,0,18,18,18,4.508297200000015,,,,,,,,,,,,,,,4.481780000000072,4.508297200000015,4.580837899999096,584891,001,2024-04-28_12h05.51.758,ArchivoPrueba,2024.1.1,None,2024-04-28 12h06.14.539787 -0500,
None,39,blue,0,0,0,0,0,19,19,19,4.608280399999785,,,,,,,,,,,,,,,4.581107999998494,4.608280399999785,4.6813033999987965,584891,001,2024-04-28_12h05.51.758,ArchivoPrueba,2024.1.1,None,2024-04-28 12h06.14.539787 -0500,
¿Recuerda el recorrido que realiza desde su cama hasta la cocina de su residencia?,1,green,0,0,0,0,,,,,,,,,,,,,,,,,,,,,,,584891,001,2024-04-28_12h05.51.758,ArchivoPrueba,2024.1.1,None,2024-04-28 12h06.14.539787 -0500,
¿Recuerda el recorrido que realiza desde su cama hasta la cocina de su residencia?,1,green,0,1,1,1,0,0,0,0,5.706998499999827,,,,,,,,,,,,4.681619599999976,4.706462699999975,5.681186899999375,5.691971999998714,5.706998499999827,5.780321199999889,584891,001,2024-04-28_12h05.51.758,ArchivoPrueba,2024.1.1,None,2024-04-28 12h06.14.539787 -0500,
¿Recuerda el trayecto que hace desde su casa hasta su lugar de trabajo?,3,red,0,1,1,1,0,1,1,1,5.807001899998795,,,,,,,,,,,,,,,5.7805933999989065,5.807001899998795,5.8801711999985855,584891,001,2024-04-28_12h05.51.758,ArchivoPrueba,2024.1.1,None,2024-04-28 12h06.14.539787 -0500,
¿Recuerda  algún inconveniente que ha  experimentado en el camino de su residencia a su lugar de trabajo?,5,white,0,1,1,1,0,2,2,2,5.907032099999924,,,,,,,,,,,,,,,5.880505199998879,5.907032099999924,5.980304400000023,584891,001,2024-04-28_12h05.51.758,ArchivoPrueba,2024.1.1,None,2024-04-28 12h06.14.539787 -0500,
¿Recuerda si hay algún lugar u objeto en su camino hacia el trabajo que le llame la atención?,7,blue,0,1,1,1,0,3,3,3,6.006942399999389,,,,,,,,,,,,,,,5.980575799998405,6.006942399999389,6.079918199999156,584891,001,2024-04-28_12h05.51.758,ArchivoPrueba,2024.1.1,None,2024-04-28 12h06.14.539787 -0500,
" ¿Recuerda el recorrido desde la entrada de su lugar de trabajo hasta su oficina, donde realiza sus funciones?",9,yellow,0,1,1,1,0,4,4,4,6.10674409999956,,,,,,,,,,,,,,,6.0802547999992385,6.10674409999956,6.1796236999998655,584891,001,2024-04-28_12h05.51.758,ArchivoPrueba,2024.1.1,None,2024-04-28 12h06.14.539787 -0500,
¿Recuerda alguna actividad que realice durante los viajes de regreso a casa desde el trabajo para relajarse?,11,orange,0,1,1,1,0,5,5,5,6.206862600000022,,,,,,,,,,,,,,,6.179911100000027,6.206862600000022,6.279576399998405,584891,001,2024-04-28_12h05.51.758,ArchivoPrueba,2024.1.1,None,2024-04-28 12h06.14.539787 -0500,
¿Recuerda el trayecto que realiza desde su casa hasta el lugar donde realiza sus compras?,13,brown,0,1,1,1,0,6,6,6,6.30647449999924,,,,,,,,,,,,,,,6.279875299998821,6.30647449999924,6.3792473999983486,584891,001,2024-04-28_12h05.51.758,ArchivoPrueba,2024.1.1,None,2024-04-28 12h06.14.539787 -0500,
¿Recuerda alguna situación divertida o interesante que haya experimentado durante el recorrido hacia el lugar de compras?,15,purple,0,1,1,1,0,7,7,7,6.392524399998365,,,,,,,,,,,,,,,6.379540899999483,6.392524399998365,6.479847099999461,584891,001,2024-04-28_12h05.51.758,ArchivoPrueba,2024.1.1,None,2024-04-28 12h06.14.539787 -0500,
 ¿Recuerda qué es lo primero que ve al llegar al lugar donde realiza sus compras?,17,green,0,1,1,1,0,8,8,8,6.506292399999438,,,,,,,,,,,,,,,6.480201999998826,6.506292399999438,6.579824599999483,584891,001,2024-04-28_12h05.51.758,ArchivoPrueba,2024.1.1,None,2024-04-28 12h06.14.539787 -0500,
¿Recuerda el recorrido desde su residencia hasta el centro de resonancia magnética?,19,red,0,1,1,1,0,9,9,9,6.606076699999903,,,,,,,,,,,,,,,6.580171199999313,6.606076699999903,6.679538299998967,584891,001,2024-04-28_12h05.51.758,ArchivoPrueba,2024.1.1,None,2024-04-28 12h06.14.539787 -0500,
None,21,white,0,1,1,1,0,10,10,10,6.706147799999599,,,,,,,,,,,,,,,6.679832299998452,6.706147799999599,6.779235399999379,584891,001,2024-04-28_12h05.51.758,ArchivoPrueba,2024.1.1,None,2024-04-28 12h06.14.539787 -0500,
None,23,blue,0,1,1,1,0,11,11,11,6.806016599999566,,,,,,,,,,,,,,,6.7795690999992075,6.806016599999566,6.879043899998578,584891,001,2024-04-28_12h05.51.758,ArchivoPrueba,2024.1.1,None,2024-04-28 12h06.14.539787 -0500,
None,25,yellow,0,1,1,1,0,12,12,12,6.905797099998381,,,,,,,,,,,,,,,6.879415299999891,6.905797099998381,6.978817199998957,584891,001,2024-04-28_12h05.51.758,ArchivoPrueba,2024.1.1,None,2024-04-28 12h06.14.539787 -0500,
None,27,orange,0,1,1,1,0,13,13,13,7.005848299999343,,,,,,,,,,,,,,,6.979157799998575,7.005848299999343,7.080364799998279,584891,001,2024-04-28_12h05.51.758,ArchivoPrueba,2024.1.1,None,2024-04-28 12h06.14.539787 -0500,
None,29,brown,0,1,1,1,0,14,14,14,7.105975499998749,,,,,,,,,,,,,,,7.080656199999794,7.105975499998749,7.179221399999733,584891,001,2024-04-28_12h05.51.758,ArchivoPrueba,2024.1.1,None,2024-04-28 12h06.14.539787 -0500,
None,31,purple,0,1,1,1,0,15,15,15,7.205659599998398,,,,,,,,,,,,,,,7.179539599999771,7.205659599998398,7.279706399998759,584891,001,2024-04-28_12h05.51.758,ArchivoPrueba,2024.1.1,None,2024-04-28 12h06.14.539787 -0500,
None,33,green,0,1,1,1,0,16,16,16,7.305791499999032,,,,,,,,,,,,,,,7.279976799998622,7.305791499999032,7.378897199998391,584891,001,2024-04-28_12h05.51.758,ArchivoPrueba,2024.1.1,None,2024-04-28 12h06.14.539787 -0500,
None,35,red,0,1,1,1,0,17,17,17,7.405527399998391,,,,,,,,,,,,,,,7.379221099999995,7.405527399998391,7.47845519999828,584891,001,2024-04-28_12h05.51.758,ArchivoPrueba,2024.1.1,None,2024-04-28 12h06.14.539787 -0500,
None,37,white,0,1,1,1,0,18,18,18,7.505260699999781,,,,,,,,,,,,,,,7.478732399998989,7.505260699999781,7.578544199999669,584891,001,2024-04-28_12h05.51.758,ArchivoPrueba,2024.1.1,None,2024-04-28 12h06.14.539787 -0500,
None,39,blue,0,1,1,1,0,19,19,19,7.605458299998645,,,,,,,,,,,,,,,7.578840700000001,7.605458299998645,7.678370699999505,584891,001,2024-04-28_12h05.51.758,ArchivoPrueba,2024.1.1,None,2024-04-28 12h06.14.539787 -0500,
¿Recuerda el trayecto que hace desde su casa hasta su lugar de trabajo?,3,red,0,1,1,1,,,,,,,,,,,,,,,,,,,,,,,584891,001,2024-04-28_12h05.51.758,ArchivoPrueba,2024.1.1,None,2024-04-28 12h06.14.539787 -0500,
¿Recuerda el recorrido que realiza desde su cama hasta la cocina de su residencia?,1,green,0,2,2,2,0,0,0,0,8.704550599999493,,,,,,,,,,,,7.678731499998321,7.703619099998832,8.678241499999785,8.687809399998514,8.704550599999493,8.777269700000033,584891,001,2024-04-28_12h05.51.758,ArchivoPrueba,2024.1.1,None,2024-04-28 12h06.14.539787 -0500,
¿Recuerda el trayecto que hace desde su casa hasta su lugar de trabajo?,3,red,0,2,2,2,0,1,1,1,8.804268699999739,,,,,,,,,,,,,,,8.777607399999397,8.804268699999739,8.877361799999562,584891,001,2024-04-28_12h05.51.758,ArchivoPrueba,2024.1.1,None,2024-04-28 12h06.14.539787 -0500,
¿Recuerda  algún inconveniente que ha  experimentado en el camino de su residencia a su lugar de trabajo?,5,white,0,2,2,2,0,2,2,2,8.90416329999971,,,,,,,,,,,,,,,8.877686599998924,8.90416329999971,8.977268199998434,584891,001,2024-04-28_12h05.51.758,ArchivoPrueba,2024.1.1,None,2024-04-28 12h06.14.539787 -0500,
¿Recuerda si hay algún lugar u objeto en su camino hacia el trabajo que le llame la atención?,7,blue,0,2,2,2,0,3,3,3,9.004190199999357,,,,,,,,,,,,,,,8.977646899998945,9.004190199999357,9.077688699999271,584891,001,2024-04-28_12h05.51.758,ArchivoPrueba,2024.1.1,None,2024-04-28 12h06.14.539787 -0500,
" ¿Recuerda el recorrido desde la entrada de su lugar de trabajo hasta su oficina, donde realiza sus funciones?",9,yellow,0,2,2,2,0,4,4,4,9.104218699998455,,,,,,,,,,,,,,,9.0779636999996,9.104218699998455,9.177027499999895,584891,001,2024-04-28_12h05.51.758,ArchivoPrueba,2024.1.1,None,2024-04-28 12h06.14.539787 -0500,
¿Recuerda alguna actividad que realice durante los viajes de regreso a casa desde el trabajo para relajarse?,11,orange,0,2,2,2,0,5,5,5,9.204305999999633,,,,,,,,,,,,,,,9.177347299999383,9.204305999999633,9.276926299999104,584891,001,2024-04-28_12h05.51.758,ArchivoPrueba,2024.1.1,None,2024-04-28 12h06.14.539787 -0500,
¿Recuerda el trayecto que realiza desde su casa hasta el lugar donde realiza sus compras?,13,brown,0,2,2,2,0,6,6,6,9.303754699998535,,,,,,,,,,,,,,,9.277212599999984,9.303754699998535,9.376700099999653,584891,001,2024-04-28_12h05.51.758,ArchivoPrueba,2024.1.1,None,2024-04-28 12h06.14.539787 -0500,
¿Recuerda alguna situación divertida o interesante que haya experimentado durante el recorrido hacia el lugar de compras?,15,purple,0,2,2,2,0,7,7,7,9.404116499999873,,,,,,,,,,,,,,,9.376972099998966,9.404116499999873,9.479070399998818,584891,001,2024-04-28_12h05.51.758,ArchivoPrueba,2024.1.1,None,2024-04-28 12h06.14.539787 -0500,
 ¿Recuerda qué es lo primero que ve al llegar al lugar donde realiza sus compras?,17,green,0,2,2,2,0,8,8,8,9.503763899998376,,,,,,,,,,,,,,,9.479511199999251,9.503763899998376,9.5776324999988,584891,001,2024-04-28_12h05.51.758,ArchivoPrueba,2024.1.1,None,2024-04-28 12h06.14.539787 -0500,
¿Recuerda el recorrido desde su residencia hasta el centro de resonancia magnética?,19,red,0,2,2,2,0,9,9,9,9.603566699999647,,,,,,,,,,,,,,,9.577953999998499,9.603566699999647,9.67724619999899,584891,001,2024-04-28_12h05.51.758,ArchivoPrueba,2024.1.1,None,2024-04-28 12h06.14.539787 -0500,
None,21,white,0,2,2,2,0,10,10,10,9.70373870000003,,,,,,,,,,,,,,,9.677578199998607,9.70373870000003,9.77651159999914,584891,001,2024-04-28_12h05.51.758,ArchivoPrueba,2024.1.1,None,2024-04-28 12h06.14.539787 -0500,
None,23,blue,0,2,2,2,0,11,11,11,9.803597099999024,,,,,,,,,,,,,,,9.776859099998546,9.803597099999024,9.877864299998691,584891,001,2024-04-28_12h05.51.758,ArchivoPrueba,2024.1.1,None,2024-04-28 12h06.14.539787 -0500,
None,25,yellow,0,2,2,2,0,12,12,12,9.903593199998795,,,,,,,,,,,,,,,9.878139399999782,9.903593199998795,9.977610599999025,584891,001,2024-04-28_12h05.51.758,ArchivoPrueba,2024.1.1,None,2024-04-28 12h06.14.539787 -0500,
None,27,orange,0,2,2,2,0,13,13,13,10.003612399999838,,,,,,,,,,,,,,,9.977901899999779,10.003612399999838,10.076525599999513,584891,001,2024-04-28_12h05.51.758,ArchivoPrueba,2024.1.1,None,2024-04-28 12h06.14.539787 -0500,
None,29,brown,0,2,2,2,0,14,14,14,10.103500899998835,,,,,,,,,,,,,,,10.07685009999841,10.103500899998835,10.177562199998647,584891,001,2024-04-28_12h05.51.758,ArchivoPrueba,2024.1.1,None,2024-04-28 12h06.14.539787 -0500,
None,31,purple,0,2,2,2,0,15,15,15,10.203406299999187,,,,,,,,,,,,,,,10.177900499998941,10.203406299999187,10.27655809999851,584891,001,2024-04-28_12h05.51.758,ArchivoPrueba,2024.1.1,None,2024-04-28 12h06.14.539787 -0500,
None,33,green,0,2,2,2,0,16,16,16,10.30350389999876,,,,,,,,,,,,,,,10.27686679999897,10.30350389999876,10.375988199999483,584891,001,2024-04-28_12h05.51.758,ArchivoPrueba,2024.1.1,None,2024-04-28 12h06.14.539787 -0500,
None,35,red,0,2,2,2,0,17,17,17,10.403103299999202,,,,,,,,,,,,,,,10.376306699999986,10.403103299999202,10.476381099999344,584891,001,2024-04-28_12h05.51.758,ArchivoPrueba,2024.1.1,None,2024-04-28 12h06.14.539787 -0500,
None,37,white,0,2,2,2,0,18,18,18,10.50296789999993,,,,,,,,,,,,,,,10.476736699998582,10.50296789999993,10.575887899998634,584891,001,2024-04-28_12h05.51.758,ArchivoPrueba,2024.1.1,None,2024-04-28 12h06.14.539787 -0500,
None,39,blue,0,2,2,2,0,19,19,19,10.602860099999816,,,,,,,,,,,,,,,10.576189199999135,10.602860099999816,10.675936399999046,584891,001,2024-04-28_12h05.51.758,ArchivoPrueba,2024.1.1,None,2024-04-28 12h06.14.539787 -0500,
¿Recuerda  algún inconveniente que ha  experimentado en el camino de su residencia a su lugar de trabajo?,5,white,0,2,2,2,,,,,,,,,,,,,,,,,,,,,,,584891,001,2024-04-28_12h05.51.758,ArchivoPrueba,2024.1.1,None,2024-04-28 12h06.14.539787 -0500,
¿Recuerda el recorrido que realiza desde su cama hasta la cocina de su residencia?,1,green,0,3,3,3,0,0,0,0,11.70177589999912,,,,,,,,,,,,10.676254699999845,10.701038399998652,11.675378099998852,11.686167299998488,11.70177589999912,11.77556469999945,584891,001,2024-04-28_12h05.51.758,ArchivoPrueba,2024.1.1,None,2024-04-28 12h06.14.539787 -0500,
¿Recuerda el trayecto que hace desde su casa hasta su lugar de trabajo?,3,red,0,3,3,3,0,1,1,1,11.801742999999988,,,,,,,,,,,,,,,11.775909399999364,11.801742999999988,11.874682299998312,584891,001,2024-04-28_12h05.51.758,ArchivoPrueba,2024.1.1,None,2024-04-28 12h06.14.539787 -0500,
¿Recuerda  algún inconveniente que ha  experimentado en el camino de su residencia a su lugar de trabajo?,5,white,0,3,3,3,0,2,2,2,11.901578199998767,,,,,,,,,,,,,,,11.875042499999836,11.901578199998767,11.974617099998795,584891,001,2024-04-28_12h05.51.758,ArchivoPrueba,2024.1.1,None,2024-04-28 12h06.14.539787 -0500,
¿Recuerda si hay algún lugar u objeto en su camino hacia el trabajo que le llame la atención?,7,blue,0,3,3,3,0,3,3,3,12.001560899998367,,,,,,,,,,,,,,,11.974987599998713,12.001560899998367,12.074572999999873,584891,001,2024-04-28_12h05.51.758,ArchivoPrueba,2024.1.1,None,2024-04-28 12h06.14.539787 -0500,
" ¿Recuerda el recorrido desde la entrada de su lugar de trabajo hasta su oficina, donde realiza sus funciones?",9,yellow,0,3,3,3,0,4,4,4,12.101591599999665,,,,,,,,,,,,,,,12.074940499998775,12.101591599999665,12.174454799998784,584891,001,2024-04-28_12h05.51.758,ArchivoPrueba,2024.1.1,None,2024-04-28 12h06.14.539787 -0500,
¿Recuerda alguna actividad que realice durante los viajes de regreso a casa desde el trabajo para relajarse?,11,orange,0,3,3,3,0,5,5,5,12.201445699998658,,,,,,,,,,,,,,,12.17477179999878,12.201445699998658,12.274529699998311,584891,001,2024-04-28_12h05.51.758,ArchivoPrueba,2024.1.1,None,2024-04-28 12h06.14.539787 -0500,
¿Recuerda el trayecto que realiza desde su casa hasta el lugar donde realiza sus compras?,13,brown,0,3,3,3,0,6,6,6,12.30132709999998,,,,,,,,,,,,,,,12.274801599998682,12.30132709999998,12.374151999998503,584891,001,2024-04-28_12h05.51.758,ArchivoPrueba,2024.1.1,None,2024-04-28 12h06.14.539787 -0500,
¿Recuerda alguna situación divertida o interesante que haya experimentado durante el recorrido hacia el lugar de compras?,15,purple,0,3,3,3,0,7,7,7,12.40151109999897,,,,,,,,,,,,,,,12.374445299999934,12.40151109999897,12.475387299999056,584891,001,2024-04-28_12h05.51.758,ArchivoPrueba,2024.1.1,None,2024-04-28 12h06.14.539787 -0500,
 ¿Recuerda qué es lo primero que ve al llegar al lugar donde realiza sus compras?,17,green,0,3,3,3,0,8,8,8,12.500920399999814,,,,,,,,,,,,,,,12.475657899998623,12.500920399999814,12.575016499999037,584891,001,2024-04-28_12h05.51.758,ArchivoPrueba,2024.1.1,None,2024-04-28 12h06.14.539787 -0500,
¿Recuerda el recorrido desde su residencia hasta el centro de resonancia magnética?,19,red,0,3,3,3,0,9,9,9,12.600917999998273,,,,,,,,,,,,,,,12.575330899999244,12.600917999998273,12.674583899999561,584891,001,2024-04-28_12h05.51.758,ArchivoPrueba,2024.1.1,None,2024-04-28 12h06.14.539787 -0500,
None,21,white,0,3,3,3,0,10,10,10,12.701105299998744,,,,,,,,,,,,,,,12.674866999999722,12.701105299998744,12.774391199998718,584891,001,2024-04-28_12h05.51.758,ArchivoPrueba,2024.1.1,None,2024-04-28 12h06.14.539787 -0500,
None,23,blue,0,3,3,3,0,11,11,11,12.800812899999073,,,,,,,,,,,,,,,12.77466370000002,12.800812899999073,12.873789899998883,584891,001,2024-04-28_12h05.51.758,ArchivoPrueba,2024.1.1,None,2024-04-28 12h06.14.539787 -0500,
None,25,yellow,0,3,3,3,0,12,12,12,12.90103629999976,,,,,,,,,,,,,,,12.874171899999055,12.90103629999976,12.973922999999559,584891,001,2024-04-28_12h05.51.758,ArchivoPrueba,2024.1.1,None,2024-04-28 12h06.14.539787 -0500,
None,27,orange,0,3,3,3,0,13,13,13,13.00074339999992,,,,,,,,,,,,,,,12.974241299998539,13.00074339999992,13.073743299999478,584891,001,2024-04-28_12h05.51.758,ArchivoPrueba,2024.1.1,None,2024-04-28 12h06.14.539787 -0500,
None,29,brown,0,3,3,3,0,14,14,14,13.10061339999993,,,,,,,,,,,,,,,13.074121799998466,13.10061339999993,13.173627399999532,584891,001,2024-04-28_12h05.51.758,ArchivoPrueba,2024.1.1,None,2024-04-28 12h06.14.539787 -0500,
None,31,purple,0,3,3,3,0,15,15,15,13.200821099999303,,,,,,,,,,,,,,,13.174006699999154,13.200821099999303,13.273962699999174,584891,001,2024-04-28_12h05.51.758,ArchivoPrueba,2024.1.1,None,2024-04-28 12h06.14.539787 -0500,
None,33,green,0,3,3,3,0,16,16,16,13.300504399998317,,,,,,,,,,,,,,,13.274272899998323,13.300504399998317,13.375131199998577,584891,001,2024-04-28_12h05.51.758,ArchivoPrueba,2024.1.1,None,2024-04-28 12h06.14.539787 -0500,
None,35,red,0,3,3,3,0,17,17,17,13.400261399998271,,,,,,,,,,,,,,,13.37552979999964,13.400261399998271,13.471246099999917,584891,001,2024-04-28_12h05.51.758,ArchivoPrueba,2024.1.1,None,2024-04-28 12h06.14.539787 -0500,
None,37,white,0,3,3,3,0,18,18,18,13.499739199998658,,,,,,,,,,,,,,,13.471677899999122,13.499739199998658,13.578108099998644,584891,001,2024-04-28_12h05.51.758,ArchivoPrueba,2024.1.1,None,2024-04-28 12h06.14.539787 -0500,
None,39,blue,0,3,3,3,0,19,19,19,13.599951999998666,,,,,,,,,,,,,,,13.57874399999855,13.599951999998666,13.671147499999279,584891,001,2024-04-28_12h05.51.758,ArchivoPrueba,2024.1.1,None,2024-04-28 12h06.14.539787 -0500,
¿Recuerda si hay algún lugar u objeto en su camino hacia el trabajo que le llame la atención?,7,blue,0,3,3,3,,,,,,,,,,,,,,,,,,,,,,,584891,001,2024-04-28_12h05.51.758,ArchivoPrueba,2024.1.1,None,2024-04-28 12h06.14.539787 -0500,
¿Recuerda el recorrido que realiza desde su cama hasta la cocina de su residencia?,1,green,0,4,4,4,0,0,0,0,14.699154299998554,,,,,,,,,,,,13.671498299998348,13.698562699999457,14.672442299999602,14.683601499998986,14.699154299998554,14.77336429999923,584891,001,2024-04-28_12h05.51.758,ArchivoPrueba,2024.1.1,None,2024-04-28 12h06.14.539787 -0500,
¿Recuerda el trayecto que hace desde su casa hasta su lugar de trabajo?,3,red,0,4,4,4,0,1,1,1,14.798977799999193,,,,,,,,,,,,,,,14.773690799998803,14.798977799999193,14.872345699999642,584891,001,2024-04-28_12h05.51.758,ArchivoPrueba,2024.1.1,None,2024-04-28 12h06.14.539787 -0500,
¿Recuerda  algún inconveniente que ha  experimentado en el camino de su residencia a su lugar de trabajo?,5,white,0,4,4,4,0,2,2,2,14.899160499999198,,,,,,,,,,,,,,,14.872661899999002,14.899160499999198,14.972724299999754,584891,001,2024-04-28_12h05.51.758,ArchivoPrueba,2024.1.1,None,2024-04-28 12h06.14.539787 -0500,
¿Recuerda si hay algún lugar u objeto en su camino hacia el trabajo que le llame la atención?,7,blue,0,4,4,4,0,3,3,3,14.999053199999253,,,,,,,,,,,,,,,14.973066499998822,14.999053199999253,15.071793899998738,584891,001,2024-04-28_12h05.51.758,ArchivoPrueba,2024.1.1,None,2024-04-28 12h06.14.539787 -0500,
" ¿Recuerda el recorrido desde la entrada de su lugar de trabajo hasta su oficina, donde realiza sus funciones?",9,yellow,0,4,4,4,0,4,4,4,15.099130599999626,,,,,,,,,,,,,,,15.072104399998352,15.099130599999626,15.171726799999306,584891,001,2024-04-28_12h05.51.758,ArchivoPrueba,2024.1.1,None,2024-04-28 12h06.14.539787 -0500,
¿Recuerda alguna actividad que realice durante los viajes de regreso a casa desde el trabajo para relajarse?,11,orange,0,4,4,4,0,5,5,5,15.198851199998899,,,,,,,,,,,,,,,15.172016699998494,15.198851199998899,15.27199599999949,584891,001,2024-04-28_12h05.51.758,ArchivoPrueba,2024.1.1,None,2024-04-28 12h06.14.539787 -0500,
¿Recuerda el trayecto que realiza desde su casa hasta el lugar donde realiza sus compras?,13,brown,0,4,4,4,0,6,6,6,15.298636999999871,,,,,,,,,,,,,,,15.272316199998386,15.298636999999871,15.371682499999224,584891,001,2024-04-28_12h05.51.758,ArchivoPrueba,2024.1.1,None,2024-04-28 12h06.14.539787 -0500,
¿Recuerda alguna situación divertida o interesante que haya experimentado durante el recorrido hacia el lugar de compras?,15,purple,0,4,4,4,0,7,7,7,15.398763499999404,,,,,,,,,,,,,,,15.371972399998413,15.398763499999404,15.471511299998383,584891,001,2024-04-28_12h05.51.758,ArchivoPrueba,2024.1.1,None,2024-04-28 12h06.14.539787 -0500,
 ¿Recuerda qué es lo primero que ve al llegar al lugar donde realiza sus compras?,17,green,0,4,4,4,0,8,8,8,15.498269499999878,,,,,,,,,,,,,,,15.471809899998334,15.498269499999878,15.571701499999108,584891,001,2024-04-28_12h05.51.758,ArchivoPrueba,2024.1.1,None,2024-04-28 12h06.14.539787 -0500,
¿Recuerda el recorrido desde su residencia hasta el centro de resonancia magnética?,19,red,0,4,4,4,0,9,9,9,15.598409099999117,,,,,,,,,,,,,,,15.571975499999098,15.598409099999117,15.67232469999908,584891,001,2024-04-28_12h05.51.758,ArchivoPrueba,2024.1.1,None,2024-04-28 12h06.14.539787 -0500,
None,21,white,0,4,4,4,0,10,10,10,15.698182000000088,,,,,,,,,,,,,,,15.672666599999502,15.698182000000088,15.772338599999784,584891,001,2024-04-28_12h05.51.758,ArchivoPrueba,2024.1.1,None,2024-04-28 12h06.14.539787 -0500,
None,23,blue,0,4,4,4,0,11,11,11,15.798186499998337,,,,,,,,,,,,,,,15.772645899998679,15.798186499998337,15.871165699998528,584891,001,2024-04-28_12h05.51.758,ArchivoPrueba,2024.1.1,None,2024-04-28 12h06.14.539787 -0500,
None,25,yellow,0,4,4,4,0,12,12,12,15.898352099999101,,,,,,,,,,,,,,,15.871556399999463,15.898352099999101,15.97120089999953,584891,001,2024-04-28_12h05.51.758,ArchivoPrueba,2024.1.1,None,2024-04-28 12h06.14.539787 -0500,
None,27,orange,0,4,4,4,0,13,13,13,15.99800839999989,,,,,,,,,,,,,,,15.971744399999807,15.99800839999989,16.07131229999868,584891,001,2024-04-28_12h05.51.758,ArchivoPrueba,2024.1.1,None,2024-04-28 12h06.14.539787 -0500,
None,29,brown,0,4,4,4,0,14,14,14,16.09814919999917,,,,,,,,,,,,,,,16.0716571999983,16.09814919999917,16.17116409999835,584891,001,2024-04-28_12h05.51.758,ArchivoPrueba,2024.1.1,None,2024-04-28 12h06.14.539787 -0500,
None,31,purple,0,4,4,4,0,15,15,15,16.19797699999981,,,,,,,,,,,,,,,16.17154819999996,16.19797699999981,16.27077719999943,584891,001,2024-04-28_12h05.51.758,ArchivoPrueba,2024.1.1,None,2024-04-28 12h06.14.539787 -0500,
None,33,green,0,4,4,4,0,16,16,16,16.297891700000037,,,,,,,,,,,,,,,16.271058999998786,16.297891700000037,16.37064559999999,584891,001,2024-04-28_12h05.51.758,ArchivoPrueba,2024.1.1,None,2024-04-28 12h06.14.539787 -0500,
None,35,red,0,4,4,4,0,17,17,17,16.397852999998577,,,,,,,,,,,,,,,16.370962599999984,16.397852999998577,16.47127129999899,584891,001,2024-04-28_12h05.51.758,ArchivoPrueba,2024.1.1,None,2024-04-28 12h06.14.539787 -0500,
None,37,white,0,4,4,4,0,18,18,18,16.497715799998332,,,,,,,,,,,,,,,16.471626299999116,16.497715799998332,16.570475699998497,584891,001,2024-04-28_12h05.51.758,ArchivoPrueba,2024.1.1,None,2024-04-28 12h06.14.539787 -0500,
None,39,blue,0,4,4,4,0,19,19,19,16.597416199998406,,,,,,,,,,,,,,,16.570777399998406,16.597416199998406,16.670747199999823,584891,001,2024-04-28_12h05.51.758,ArchivoPrueba,2024.1.1,None,2024-04-28 12h06.14.539787 -0500,
" ¿Recuerda el recorrido desde la entrada de su lugar de trabajo hasta su oficina, donde realiza sus funciones?",9,yellow,0,4,4,4,,,,,,,,,,,,,,,,,,,,,,,584891,001,2024-04-28_12h05.51.758,ArchivoPrueba,2024.1.1,None,2024-04-28 12h06.14.539787 -0500,
¿Recuerda el recorrido que realiza desde su cama hasta la cocina de su residencia?,1,green,0,5,5,5,0,0,0,0,17.69668549999915,,,,,,,,,,,,16.671065999998973,16.697581899999932,17.66985029999887,17.679943099999946,17.69668549999915,17.76963699999942,584891,001,2024-04-28_12h05.51.758,ArchivoPrueba,2024.1.1,None,2024-04-28 12h06.14.539787 -0500,
¿Recuerda el trayecto que hace desde su casa hasta su lugar de trabajo?,3,red,0,5,5,5,0,1,1,1,17.796223699999246,,,,,,,,,,,,,,,17.769946099999288,17.796223699999246,17.870056399999157,584891,001,2024-04-28_12h05.51.758,ArchivoPrueba,2024.1.1,None,2024-04-28 12h06.14.539787 -0500,
¿Recuerda  algún inconveniente que ha  experimentado en el camino de su residencia a su lugar de trabajo?,5,white,0,5,5,5,0,2,2,2,17.896218799998678,,,,,,,,,,,,,,,17.870392299999367,17.896218799998678,17.969468499999493,584891,001,2024-04-28_12h05.51.758,ArchivoPrueba,2024.1.1,None,2024-04-28 12h06.14.539787 -0500,
¿Recuerda si hay algún lugar u objeto en su camino hacia el trabajo que le llame la atención?,7,blue,0,5,5,5,0,3,3,3,17.996174500000052,,,,,,,,,,,,,,,17.969784099999742,17.996174500000052,18.06941099999858,584891,001,2024-04-28_12h05.51.758,ArchivoPrueba,2024.1.1,None,2024-04-28 12h06.14.539787 -0500,
" ¿Recuerda el recorrido desde la entrada de su lugar de trabajo hasta su oficina, donde realiza sus funciones?",9,yellow,0,5,5,5,0,4,4,4,18.096204499999658,,,,,,,,,,,,,,,18.069757899998876,18.096204499999658,18.16965749999872,584891,001,2024-04-28_12h05.51.758,ArchivoPrueba,2024.1.1,None,2024-04-28 12h06.14.539787 -0500,
¿Recuerda alguna actividad que realice durante los viajes de regreso a casa desde el trabajo para relajarse?,11,orange,0,5,5,5,0,5,5,5,18.196068100000048,,,,,,,,,,,,,,,18.169924799998626,18.196068100000048,18.2693292999993,584891,001,2024-04-28_12h05.51.758,ArchivoPrueba,2024.1.1,None,2024-04-28 12h06.14.539787 -0500,
¿Recuerda el trayecto que realiza desde su casa hasta el lugar donde realiza sus compras?,13,brown,0,5,5,5,0,6,6,6,18.296069299998635,,,,,,,,,,,,,,,18.269635799999378,18.296069299998635,18.385443699999087,584891,001,2024-04-28_12h05.51.758,ArchivoPrueba,2024.1.1,None,2024-04-28 12h06.14.539787 -0500,
¿Recuerda alguna situación divertida o interesante que haya experimentado durante el recorrido hacia el lugar de compras?,15,purple,0,5,5,5,0,7,7,7,18.412597199998345,,,,,,,,,,,,,,,18.38571939999929,18.412597199998345,18.48571229999834,584891,001,2024-04-28_12h05.51.758,ArchivoPrueba,2024.1.1,None,2024-04-28 12h06.14.539787 -0500,
 ¿Recuerda qué es lo primero que ve al llegar al lugar donde realiza sus compras?,17,green,0,5,5,5,0,8,8,8,18.51248249999844,,,,,,,,,,,,,,,18.486016599999857,18.51248249999844,18.569746099999975,584891,001,2024-04-28_12h05.51.758,ArchivoPrueba,2024.1.1,None,2024-04-28 12h06.14.539787 -0500,
¿Recuerda el recorrido desde su residencia hasta el centro de resonancia magnética?,19,red,0,5,5,5,0,9,9,9,18.5958916999989,,,,,,,,,,,,,,,18.570047199998953,18.5958916999989,18.685892599998624,584891,001,2024-04-28_12h05.51.758,ArchivoPrueba,2024.1.1,None,2024-04-28 12h06.14.539787 -0500,
None,21,white,0,5,5,5,0,10,10,10,18.712202400000024,,,,,,,,,,,,,,,18.686237799998707,18.712202400000024,18.785906499999328,584891,001,2024-04-28_12h05.51.758,ArchivoPrueba,2024.1.1,None,2024-04-28 12h06.14.539787 -0500,
None,23,blue,0,5,5,5,0,11,11,11,18.812131599999702,,,,,,,,,,,,,,,18.786203299998306,18.812131599999702,18.885586200000034,584891,001,2024-04-28_12h05.51.758,ArchivoPrueba,2024.1.1,None,2024-04-28 12h06.14.539787 -0500,
None,25,yellow,0,5,5,5,0,12,12,12,18.912144199999602,,,,,,,,,,,,,,,18.88585889999922,18.912144199999602,18.985209999998915,584891,001,2024-04-28_12h05.51.758,ArchivoPrueba,2024.1.1,None,2024-04-28 12h06.14.539787 -0500,
None,27,orange,0,5,5,5,0,13,13,13,19.012164899999334,,,,,,,,,,,,,,,18.985595999998623,19.012164899999334,19.084815999998682,584891,001,2024-04-28_12h05.51.758,ArchivoPrueba,2024.1.1,None,2024-04-28 12h06.14.539787 -0500,
None,29,brown,0,5,5,5,0,14,14,14,19.112154099999316,,,,,,,,,,,,,,,19.085113199998887,19.112154099999316,19.185684999998557,584891,001,2024-04-28_12h05.51.758,ArchivoPrueba,2024.1.1,None,2024-04-28 12h06.14.539787 -0500,
None,31,purple,0,5,5,5,0,15,15,15,19.211733399999503,,,,,,,,,,,,,,,19.18601089999902,19.211733399999503,19.28496929999892,584891,001,2024-04-28_12h05.51.758,ArchivoPrueba,2024.1.1,None,2024-04-28 12h06.14.539787 -0500,
None,33,green,0,5,5,5,0,16,16,16,19.31193759999951,,,,,,,,,,,,,,,19.285320399998454,19.31193759999951,19.385503899999094,584891,001,2024-04-28_12h05.51.758,ArchivoPrueba,2024.1.1,None,2024-04-28 12h06.14.539787 -0500,
None,35,red,0,5,5,5,0,17,17,17,19.411872499998935,,,,,,,,,,,,,,,19.385853399999178,19.411872499998935,19.48510989999886,584891,001,2024-04-28_12h05.51.758,ArchivoPrueba,2024.1.1,None,2024-04-28 12h06.14.539787 -0500,
None,37,white,0,5,5,5,0,18,18,18,19.51168179999877,,,,,,,,,,,,,,,19.48544419999962,19.51168179999877,19.58466529999896,584891,001,2024-04-28_12h05.51.758,ArchivoPrueba,2024.1.1,None,2024-04-28 12h06.14.539787 -0500,
None,39,blue,0,5,5,5,0,19,19,19,19.611852299998645,,,,,,,,,,,,,,,19.58496119999836,19.611852299998645,19.684636999998474,584891,001,2024-04-28_12h05.51.758,ArchivoPrueba,2024.1.1,None,2024-04-28 12h06.14.539787 -0500,
¿Recuerda alguna actividad que realice durante los viajes de regreso a casa desde el trabajo para relajarse?,11,orange,0,5,5,5,,,,,,,,,,,,,,,,,,,,,,,584891,001,2024-04-28_12h05.51.758,ArchivoPrueba,2024.1.1,None,2024-04-28 12h06.14.539787 -0500,
¿Recuerda el recorrido que realiza desde su cama hasta la cocina de su residencia?,1,green,0,6,6,6,0,0,0,0,20.710656999999628,,,,,,,,,,,,19.685010899998815,19.711501799998587,20.683953499999916,20.69620659999964,20.710656999999628,20.783888699999807,584891,001,2024-04-28_12h05.51.758,ArchivoPrueba,2024.1.1,None,2024-04-28 12h06.14.539787 -0500,
¿Recuerda el trayecto que hace desde su casa hasta su lugar de trabajo?,3,red,0,6,6,6,0,1,1,1,20.81047109999963,,,,,,,,,,,,,,,20.784158699998443,20.81047109999963,20.884280499998567,584891,001,2024-04-28_12h05.51.758,ArchivoPrueba,2024.1.1,None,2024-04-28 12h06.14.539787 -0500,
¿Recuerda  algún inconveniente que ha  experimentado en el camino de su residencia a su lugar de trabajo?,5,white,0,6,6,6,0,2,2,2,20.910295899999255,,,,,,,,,,,,,,,20.884638099998483,20.910295899999255,20.983493099998668,584891,001,2024-04-28_12h05.51.758,ArchivoPrueba,2024.1.1,None,2024-04-28 12h06.14.539787 -0500,
¿Recuerda si hay algún lugar u objeto en su camino hacia el trabajo que le llame la atención?,7,blue,0,6,6,6,0,3,3,3,21.010403499998574,,,,,,,,,,,,,,,20.983824599999934,21.010403499998574,21.083420699998896,584891,001,2024-04-28_12h05.51.758,ArchivoPrueba,2024.1.1,None,2024-04-28 12h06.14.539787 -0500,
" ¿Recuerda el recorrido desde la entrada de su lugar de trabajo hasta su oficina, donde realiza sus funciones?",9,yellow,0,6,6,6,0,4,4,4,21.11031539999931,,,,,,,,,,,,,,,21.083765800000037,21.11031539999931,21.18320109999877,584891,001,2024-04-28_12h05.51.758,ArchivoPrueba,2024.1.1,None,2024-04-28 12h06.14.539787 -0500,
¿Recuerda alguna actividad que realice durante los viajes de regreso a casa desde el trabajo para relajarse?,11,orange,0,6,6,6,0,5,5,5,21.2102335999989,,,,,,,,,,,,,,,21.183546999998725,21.2102335999989,21.283618399998886,584891,001,2024-04-28_12h05.51.758,ArchivoPrueba,2024.1.1,None,2024-04-28 12h06.14.539787 -0500,
¿Recuerda el trayecto que realiza desde su casa hasta el lugar donde realiza sus compras?,13,brown,0,6,6,6,0,6,6,6,21.31028089999927,,,,,,,,,,,,,,,21.283910599999217,21.31028089999927,21.382947999998578,584891,001,2024-04-28_12h05.51.758,ArchivoPrueba,2024.1.1,None,2024-04-28 12h06.14.539787 -0500,
¿Recuerda alguna situación divertida o interesante que haya experimentado durante el recorrido hacia el lugar de compras?,15,purple,0,6,6,6,0,7,7,7,21.410290999998324,,,,,,,,,,,,,,,21.38326689999849,21.410290999998324,21.483088499999212,584891,001,2024-04-28_12h05.51.758,ArchivoPrueba,2024.1.1,None,2024-04-28 12h06.14.539787 -0500,
 ¿Recuerda qué es lo primero que ve al llegar al lugar donde realiza sus compras?,17,green,0,6,6,6,0,8,8,8,21.51008009999896,,,,,,,,,,,,,,,21.48344989999896,21.51008009999896,21.582680799998343,584891,001,2024-04-28_12h05.51.758,ArchivoPrueba,2024.1.1,None,2024-04-28 12h06.14.539787 -0500,
¿Recuerda el recorrido desde su residencia hasta el centro de resonancia magnética?,19,red,0,6,6,6,0,9,9,9,21.609667499998977,,,,,,,,,,,,,,,21.582956099999137,21.609667499998977,21.682729999998628,584891,001,2024-04-28_12h05.51.758,ArchivoPrueba,2024.1.1,None,2024-04-28 12h06.14.539787 -0500,
None,21,white,0,6,6,6,0,10,10,10,21.709850399998686,,,,,,,,,,,,,,,21.68305489999875,21.709850399998686,21.782907899998463,584891,001,2024-04-28_12h05.51.758,ArchivoPrueba,2024.1.1,None,2024-04-28 12h06.14.539787 -0500,
None,23,blue,0,6,6,6,0,11,11,11,21.809609399999317,,,,,,,,,,,,,,,21.78317749999951,21.809609399999317,21.883236199999374,584891,001,2024-04-28_12h05.51.758,ArchivoPrueba,2024.1.1,None,2024-04-28 12h06.14.539787 -0500,
None,25,yellow,0,6,6,6,0,12,12,12,21.909289799999897,,,,,,,,,,,,,,,21.883588099999542,21.909289799999897,21.98292609999953,584891,001,2024-04-28_12h05.51.758,ArchivoPrueba,2024.1.1,None,2024-04-28 12h06.14.539787 -0500,
None,27,orange,0,6,6,6,0,13,13,13,22.009322999998403,,,,,,,,,,,,,,,21.983202999999776,22.009322999998403,22.082705499999065,584891,001,2024-04-28_12h05.51.758,ArchivoPrueba,2024.1.1,None,2024-04-28 12h06.14.539787 -0500,
None,29,brown,0,6,6,6,0,14,14,14,22.109481699999378,,,,,,,,,,,,,,,22.083080599999448,22.109481699999378,22.18346930000007,584891,001,2024-04-28_12h05.51.758,ArchivoPrueba,2024.1.1,None,2024-04-28 12h06.14.539787 -0500,
None,31,purple,0,6,6,6,0,15,15,15,22.209391499998674,,,,,,,,,,,,,,,22.18377469999905,22.209391499998674,22.282303999998476,584891,001,2024-04-28_12h05.51.758,ArchivoPrueba,2024.1.1,None,2024-04-28 12h06.14.539787 -0500,
None,33,green,0,6,6,6,0,16,16,16,22.309414999999717,,,,,,,,,,,,,,,22.282602100000076,22.309414999999717,22.382015199998932,584891,001,2024-04-28_12h05.51.758,ArchivoPrueba,2024.1.1,None,2024-04-28 12h06.14.539787 -0500,
None,35,red,0,6,6,6,0,17,17,17,22.395289399999456,,,,,,,,,,,,,,,22.382290899999134,22.395289399999456,22.482389399998283,584891,001,2024-04-28_12h05.51.758,ArchivoPrueba,2024.1.1,None,2024-04-28 12h06.14.539787 -0500,
None,37,white,0,6,6,6,0,18,18,18,22.50919409999915,,,,,,,,,,,,,,,22.482660299998315,22.50919409999915,22.582290099999227,584891,001,2024-04-28_12h05.51.758,ArchivoPrueba,2024.1.1,None,2024-04-28 12h06.14.539787 -0500,
None,39,blue,0,6,6,6,0,19,19,19,22.609109399998488,,,,,,,,,,,,,,,22.582561899998836,22.609109399998488,22.68205019999914,584891,001,2024-04-28_12h05.51.758,ArchivoPrueba,2024.1.1,None,2024-04-28 12h06.14.539787 -0500,
¿Recuerda el trayecto que realiza desde su casa hasta el lugar donde realiza sus compras?,13,brown,0,6,6,6,,,,,,,,,,,,,,,,,,,,,,,584891,001,2024-04-28_12h05.51.758,ArchivoPrueba,2024.1.1,None,2024-04-28 12h06.14.539787 -0500,
¿Recuerda el recorrido que realiza desde su cama hasta la cocina de su residencia?,1,green,0,7,7,7,0,0,0,0,23.70799569999872,,,,,,,,,,,,22.68239579999863,22.709093999999823,23.68149259999882,23.69114349999836,23.70799569999872,23.781035699999848,584891,001,2024-04-28_12h05.51.758,ArchivoPrueba,2024.1.1,None,2024-04-28 12h06.14.539787 -0500,
¿Recuerda el trayecto que hace desde su casa hasta su lugar de trabajo?,3,red,0,7,7,7,0,1,1,1,23.807726499999262,,,,,,,,,,,,,,,23.781332999998995,23.807726499999262,23.881214799999725,584891,001,2024-04-28_12h05.51.758,ArchivoPrueba,2024.1.1,None,2024-04-28 12h06.14.539787 -0500,
¿Recuerda  algún inconveniente que ha  experimentado en el camino de su residencia a su lugar de trabajo?,5,white,0,7,7,7,0,2,2,2,23.907909499999732,,,,,,,,,,,,,,,23.881508599999506,23.907909499999732,23.98119929999848,584891,001,2024-04-28_12h05.51.758,ArchivoPrueba,2024.1.1,None,2024-04-28 12h06.14.539787 -0500,
¿Recuerda si hay algún lugar u objeto en su camino hacia el trabajo que le llame la atención?,7,blue,0,7,7,7,0,3,3,3,24.007785499999954,,,,,,,,,,,,,,,23.98149249999915,24.007785499999954,24.080837099998462,584891,001,2024-04-28_12h05.51.758,ArchivoPrueba,2024.1.1,None,2024-04-28 12h06.14.539787 -0500,
" ¿Recuerda el recorrido desde la entrada de su lugar de trabajo hasta su oficina, donde realiza sus funciones?",9,yellow,0,7,7,7,0,4,4,4,24.10768609999832,,,,,,,,,,,,,,,24.081275900000037,24.10768609999832,24.181056999999782,584891,001,2024-04-28_12h05.51.758,ArchivoPrueba,2024.1.1,None,2024-04-28 12h06.14.539787 -0500,
¿Recuerda alguna actividad que realice durante los viajes de regreso a casa desde el trabajo para relajarse?,11,orange,0,7,7,7,0,5,5,5,24.207780799999455,,,,,,,,,,,,,,,24.181333900000027,24.207780799999455,24.28072079999947,584891,001,2024-04-28_12h05.51.758,ArchivoPrueba,2024.1.1,None,2024-04-28 12h06.14.539787 -0500,
¿Recuerda el trayecto que realiza desde su casa hasta el lugar donde realiza sus compras?,13,brown,0,7,7,7,0,6,6,6,24.307832799999233,,,,,,,,,,,,,,,24.281079399999726,24.307832799999233,24.380670999998983,584891,001,2024-04-28_12h05.51.758,ArchivoPrueba,2024.1.1,None,2024-04-28 12h06.14.539787 -0500,
¿Recuerda alguna situación divertida o interesante que haya experimentado durante el recorrido hacia el lugar de compras?,15,purple,0,7,7,7,0,7,7,7,24.407505499999388,,,,,,,,,,,,,,,24.381026399998518,24.407505499999388,24.480297599999176,584891,001,2024-04-28_12h05.51.758,ArchivoPrueba,2024.1.1,None,2024-04-28 12h06.14.539787 -0500,
 ¿Recuerda qué es lo primero que ve al llegar al lugar donde realiza sus compras?,17,green,0,7,7,7,0,8,8,8,24.507616699998835,,,,,,,,,,,,,,,24.48057929999959,24.507616699998835,24.580331599998317,584891,001,2024-04-28_12h05.51.758,ArchivoPrueba,2024.1.1,None,2024-04-28 12h06.14.539787 -0500,
¿Recuerda el recorrido desde su residencia hasta el centro de resonancia magnética?,19,red,0,7,7,7,0,9,9,9,24.60748049999893,,,,,,,,,,,,,,,24.58062439999958,24.60748049999893,24.68088529999841,584891,001,2024-04-28_12h05.51.758,ArchivoPrueba,2024.1.1,None,2024-04-28 12h06.14.539787 -0500,
None,21,white,0,7,7,7,0,10,10,10,24.70717059999879,,,,,,,,,,,,,,,24.681233899998915,24.70717059999879,24.78136109999832,584891,001,2024-04-28_12h05.51.758,ArchivoPrueba,2024.1.1,None,2024-04-28 12h06.14.539787 -0500,
None,23,blue,0,7,7,7,0,11,11,11,24.80749519999881,,,,,,,,,,,,,,,24.781958499999746,24.80749519999881,24.88022379999893,584891,001,2024-04-28_12h05.51.758,ArchivoPrueba,2024.1.1,None,2024-04-28 12h06.14.539787 -0500,
None,25,yellow,0,7,7,7,0,12,12,12,24.90711139999985,,,,,,,,,,,,,,,24.880497499998455,24.90711139999985,24.979806899998948,584891,001,2024-04-28_12h05.51.758,ArchivoPrueba,2024.1.1,None,2024-04-28 12h06.14.539787 -0500,
None,27,orange,0,7,7,7,0,13,13,13,25.006731199999194,,,,,,,,,,,,,,,24.980166599998483,25.006731199999194,25.080436299998837,584891,001,2024-04-28_12h05.51.758,ArchivoPrueba,2024.1.1,None,2024-04-28 12h06.14.539787 -0500,
None,29,brown,0,7,7,7,0,14,14,14,25.106742199999644,,,,,,,,,,,,,,,25.080707999999504,25.106742199999644,25.179558399999223,584891,001,2024-04-28_12h05.51.758,ArchivoPrueba,2024.1.1,None,2024-04-28 12h06.14.539787 -0500,
None,31,purple,0,7,7,7,0,15,15,15,25.206798499999422,,,,,,,,,,,,,,,25.179830699999002,25.206798499999422,25.279705199998716,584891,001,2024-04-28_12h05.51.758,ArchivoPrueba,2024.1.1,None,2024-04-28 12h06.14.539787 -0500,
None,33,green,0,7,7,7,0,16,16,16,25.30678059999991,,,,,,,,,,,,,,,25.280016599999726,25.30678059999991,25.380088599999,584891,001,2024-04-28_12h05.51.758,ArchivoPrueba,2024.1.1,None,2024-04-28 12h06.14.539787 -0500,
None,35,red,0,7,7,7,0,17,17,17,25.406485199999224,,,,,,,,,,,,,,,25.380446899998788,25.406485199999224,25.47936049999953,584891,001,2024-04-28_12h05.51.758,ArchivoPrueba,2024.1.1,None,2024-04-28 12h06.14.539787 -0500,
None,37,white,0,7,7,7,0,18,18,18,25.506514299999253,,,,,,,,,,,,,,,25.479639499999394,25.506514299999253,25.579503599999953,584891,001,2024-04-28_12h05.51.758,ArchivoPrueba,2024.1.1,None,2024-04-28 12h06.14.539787 -0500,
None,39,blue,0,7,7,7,0,19,19,19,25.606093200000032,,,,,,,,,,,,,,,25.579811199999313,25.606093200000032,25.679551699999138,584891,001,2024-04-28_12h05.51.758,ArchivoPrueba,2024.1.1,None,2024-04-28 12h06.14.539787 -0500,
¿Recuerda alguna situación divertida o interesante que haya experimentado durante el recorrido hacia el lugar de compras?,15,purple,0,7,7,7,,,,,,,,,,,,,,,,,,,,,,,584891,001,2024-04-28_12h05.51.758,ArchivoPrueba,2024.1.1,None,2024-04-28 12h06.14.539787 -0500,
¿Recuerda el recorrido que realiza desde su cama hasta la cocina de su residencia?,1,green,0,8,8,8,0,0,0,0,26.705160499999693,,,,,,,,,,,,25.67987269999867,25.70478479999838,26.678698699999586,26.68944929999998,26.705160499999693,26.779078300000037,584891,001,2024-04-28_12h05.51.758,ArchivoPrueba,2024.1.1,None,2024-04-28 12h06.14.539787 -0500,
¿Recuerda el trayecto que hace desde su casa hasta su lugar de trabajo?,3,red,0,8,8,8,0,1,1,1,26.805083999999624,,,,,,,,,,,,,,,26.779495199998564,26.805083999999624,26.878740799998923,584891,001,2024-04-28_12h05.51.758,ArchivoPrueba,2024.1.1,None,2024-04-28 12h06.14.539787 -0500,
¿Recuerda  algún inconveniente que ha  experimentado en el camino de su residencia a su lugar de trabajo?,5,white,0,8,8,8,0,2,2,2,26.90503229999922,,,,,,,,,,,,,,,26.879030099999,26.90503229999922,26.978287899999486,584891,001,2024-04-28_12h05.51.758,ArchivoPrueba,2024.1.1,None,2024-04-28 12h06.14.539787 -0500,
¿Recuerda si hay algún lugar u objeto en su camino hacia el trabajo que le llame la atención?,7,blue,0,8,8,8,0,3,3,3,27.0050543999987,,,,,,,,,,,,,,,26.978671399998348,27.0050543999987,27.078309999998964,584891,001,2024-04-28_12h05.51.758,ArchivoPrueba,2024.1.1,None,2024-04-28 12h06.14.539787 -0500,
" ¿Recuerda el recorrido desde la entrada de su lugar de trabajo hasta su oficina, donde realiza sus funciones?",9,yellow,0,8,8,8,0,4,4,4,27.105119799998647,,,,,,,,,,,,,,,27.078618699999424,27.105119799998647,27.178520199999184,584891,001,2024-04-28_12h05.51.758,ArchivoPrueba,2024.1.1,None,2024-04-28 12h06.14.539787 -0500,
¿Recuerda alguna actividad que realice durante los viajes de regreso a casa desde el trabajo para relajarse?,11,orange,0,8,8,8,0,5,5,5,27.205003499999293,,,,,,,,,,,,,,,27.17879829999947,27.205003499999293,27.27791519999846,584891,001,2024-04-28_12h05.51.758,ArchivoPrueba,2024.1.1,None,2024-04-28 12h06.14.539787 -0500,
¿Recuerda el trayecto que realiza desde su casa hasta el lugar donde realiza sus compras?,13,brown,0,8,8,8,0,6,6,6,27.305033199998434,,,,,,,,,,,,,,,27.278341199998977,27.305033199998434,27.3780388999985,584891,001,2024-04-28_12h05.51.758,ArchivoPrueba,2024.1.1,None,2024-04-28 12h06.14.539787 -0500,
¿Recuerda alguna situación divertida o interesante que haya experimentado durante el recorrido hacia el lugar de compras?,15,purple,0,8,8,8,0,7,7,7,27.404835999999705,,,,,,,,,,,,,,,27.378412000000026,27.404835999999705,27.477686299998823,584891,001,2024-04-28_12h05.51.758,ArchivoPrueba,2024.1.1,None,2024-04-28 12h06.14.539787 -0500,
 ¿Recuerda qué es lo primero que ve al llegar al lugar donde realiza sus compras?,17,green,0,8,8,8,0,8,8,8,27.50487069999872,,,,,,,,,,,,,,,27.477967399998306,27.50487069999872,27.57772929999919,584891,001,2024-04-28_12h05.51.758,ArchivoPrueba,2024.1.1,None,2024-04-28 12h06.14.539787 -0500,
¿Recuerda el recorrido desde su residencia hasta el centro de resonancia magnética?,19,red,0,8,8,8,0,9,9,9,27.60464309999952,,,,,,,,,,,,,,,27.578054099998553,27.60464309999952,27.677603299998736,584891,001,2024-04-28_12h05.51.758,ArchivoPrueba,2024.1.1,None,2024-04-28 12h06.14.539787 -0500,
None,21,white,0,8,8,8,0,10,10,10,27.7043896999985,,,,,,,,,,,,,,,27.677924199999325,27.7043896999985,27.77785760000006,584891,001,2024-04-28_12h05.51.758,ArchivoPrueba,2024.1.1,None,2024-04-28 12h06.14.539787 -0500,
None,23,blue,0,8,8,8,0,11,11,11,27.804492399998708,,,,,,,,,,,,,,,27.778177099999084,27.804492399998708,27.87722549999853,584891,001,2024-04-28_12h05.51.758,ArchivoPrueba,2024.1.1,None,2024-04-28 12h06.14.539787 -0500,
None,25,yellow,0,8,8,8,0,12,12,12,27.90419870000005,,,,,,,,,,,,,,,27.8775345999984,27.90419870000005,27.977142699999604,584891,001,2024-04-28_12h05.51.758,ArchivoPrueba,2024.1.1,None,2024-04-28 12h06.14.539787 -0500,
None,27,orange,0,8,8,8,0,13,13,13,28.00441409999985,,,,,,,,,,,,,,,27.977451899998414,28.00441409999985,28.077459299998736,584891,001,2024-04-28_12h05.51.758,ArchivoPrueba,2024.1.1,None,2024-04-28 12h06.14.539787 -0500,
None,29,brown,0,8,8,8,0,14,14,14,28.10415119999925,,,,,,,,,,,,,,,28.077735799999573,28.10415119999925,28.178257899999153,584891,001,2024-04-28_12h05.51.758,ArchivoPrueba,2024.1.1,None,2024-04-28 12h06.14.539787 -0500,
None,31,purple,0,8,8,8,0,15,15,15,28.204123299999992,,,,,,,,,,,,,,,28.178573299999698,28.204123299999992,28.277912699999433,584891,001,2024-04-28_12h05.51.758,ArchivoPrueba,2024.1.1,None,2024-04-28 12h06.14.539787 -0500,
None,33,green,0,8,8,8,0,16,16,16,28.303959899998517,,,,,,,,,,,,,,,28.278319799999736,28.303959899998517,28.377095999998346,584891,001,2024-04-28_12h05.51.758,ArchivoPrueba,2024.1.1,None,2024-04-28 12h06.14.539787 -0500,
None,35,red,0,8,8,8,0,17,17,17,28.404068999998344,,,,,,,,,,,,,,,28.3774642999997,28.404068999998344,28.477869199999986,584891,001,2024-04-28_12h05.51.758,ArchivoPrueba,2024.1.1,None,2024-04-28 12h06.14.539787 -0500,
None,37,white,0,8,8,8,0,18,18,18,28.504013499999928,,,,,,,,,,,,,,,28.478205399998842,28.504013499999928,28.57745369999975,584891,001,2024-04-28_12h05.51.758,ArchivoPrueba,2024.1.1,None,2024-04-28 12h06.14.539787 -0500,
None,39,blue,0,8,8,8,0,19,19,19,28.603730999999243,,,,,,,,,,,,,,,28.577853999999206,28.603730999999243,28.676561699998274,584891,001,2024-04-28_12h05.51.758,ArchivoPrueba,2024.1.1,None,2024-04-28 12h06.14.539787 -0500,
 ¿Recuerda qué es lo primero que ve al llegar al lugar donde realiza sus compras?,17,green,0,8,8,8,,,,,,,,,,,,,,,,,,,,,,,584891,001,2024-04-28_12h05.51.758,ArchivoPrueba,2024.1.1,None,2024-04-28 12h06.14.539787 -0500,
¿Recuerda el recorrido que realiza desde su cama hasta la cocina de su residencia?,1,green,0,9,9,9,0,0,0,0,29.702875199998743,,,,,,,,,,,,28.676921299998867,28.703935999999885,29.673460899999554,29.684128199998668,29.702875199998743,29.776455199998964,584891,001,2024-04-28_12h05.51.758,ArchivoPrueba,2024.1.1,None,2024-04-28 12h06.14.539787 -0500,
¿Recuerda el trayecto que hace desde su casa hasta su lugar de trabajo?,3,red,0,9,9,9,0,1,1,1,29.802765999998883,,,,,,,,,,,,,,,29.77674929999921,29.802765999998883,29.876270799999475,584891,001,2024-04-28_12h05.51.758,ArchivoPrueba,2024.1.1,None,2024-04-28 12h06.14.539787 -0500,
¿Recuerda  algún inconveniente que ha  experimentado en el camino de su residencia a su lugar de trabajo?,5,white,0,9,9,9,0,2,2,2,29.902961999998297,,,,,,,,,,,,,,,29.876565799999298,29.902961999998297,29.9758425,584891,001,2024-04-28_12h05.51.758,ArchivoPrueba,2024.1.1,None,2024-04-28 12h06.14.539787 -0500,
¿Recuerda si hay algún lugar u objeto en su camino hacia el trabajo que le llame la atención?,7,blue,0,9,9,9,0,3,3,3,30.00283759999911,,,,,,,,,,,,,,,29.976151599999866,30.00283759999911,30.075337399999626,584891,001,2024-04-28_12h05.51.758,ArchivoPrueba,2024.1.1,None,2024-04-28 12h06.14.539787 -0500,
" ¿Recuerda el recorrido desde la entrada de su lugar de trabajo hasta su oficina, donde realiza sus funciones?",9,yellow,0,9,9,9,0,4,4,4,30.102482299998883,,,,,,,,,,,,,,,30.0756382999989,30.102482299998883,30.17544529999941,584891,001,2024-04-28_12h05.51.758,ArchivoPrueba,2024.1.1,None,2024-04-28 12h06.14.539787 -0500,
¿Recuerda alguna actividad que realice durante los viajes de regreso a casa desde el trabajo para relajarse?,11,orange,0,9,9,9,0,5,5,5,30.20264639999914,,,,,,,,,,,,,,,30.175735699998768,30.20264639999914,30.275393999998414,584891,001,2024-04-28_12h05.51.758,ArchivoPrueba,2024.1.1,None,2024-04-28 12h06.14.539787 -0500,
¿Recuerda el trayecto que realiza desde su casa hasta el lugar donde realiza sus compras?,13,brown,0,9,9,9,0,6,6,6,30.3024966999983,,,,,,,,,,,,,,,30.27571799999896,30.3024966999983,30.375243799999225,584891,001,2024-04-28_12h05.51.758,ArchivoPrueba,2024.1.1,None,2024-04-28 12h06.14.539787 -0500,
¿Recuerda alguna situación divertida o interesante que haya experimentado durante el recorrido hacia el lugar de compras?,15,purple,0,9,9,9,0,7,7,7,30.40221930000007,,,,,,,,,,,,,,,30.375547099998585,30.40221930000007,30.474980399998458,584891,001,2024-04-28_12h05.51.758,ArchivoPrueba,2024.1.1,None,2024-04-28 12h06.14.539787 -0500,
 ¿Recuerda qué es lo primero que ve al llegar al lugar donde realiza sus compras?,17,green,0,9,9,9,0,8,8,8,30.502424299998893,,,,,,,,,,,,,,,30.47525659999883,30.502424299998893,30.575891299999057,584891,001,2024-04-28_12h05.51.758,ArchivoPrueba,2024.1.1,None,2024-04-28 12h06.14.539787 -0500,
¿Recuerda el recorrido desde su residencia hasta el centro de resonancia magnética?,19,red,0,9,9,9,0,9,9,9,30.602119699999093,,,,,,,,,,,,,,,30.576211599998715,30.602119699999093,30.67559739999888,584891,001,2024-04-28_12h05.51.758,ArchivoPrueba,2024.1.1,None,2024-04-28 12h06.14.539787 -0500,
None,21,white,0,9,9,9,0,10,10,10,30.702005799999824,,,,,,,,,,,,,,,30.675943999998708,30.702005799999824,30.77553379999881,584891,001,2024-04-28_12h05.51.758,ArchivoPrueba,2024.1.1,None,2024-04-28 12h06.14.539787 -0500,
None,23,blue,0,9,9,9,0,11,11,11,30.801865099998395,,,,,,,,,,,,,,,30.77589959999932,30.801865099998395,30.874861399999645,584891,001,2024-04-28_12h05.51.758,ArchivoPrueba,2024.1.1,None,2024-04-28 12h06.14.539787 -0500,
None,25,yellow,0,9,9,9,0,12,12,12,30.901668900000004,,,,,,,,,,,,,,,30.875208499999644,30.901668900000004,30.97494430000006,584891,001,2024-04-28_12h05.51.758,ArchivoPrueba,2024.1.1,None,2024-04-28 12h06.14.539787 -0500,
None,27,orange,0,9,9,9,0,13,13,13,31.001645599999392,,,,,,,,,,,,,,,30.975235199999588,31.001645599999392,31.074688400000014,584891,001,2024-04-28_12h05.51.758,ArchivoPrueba,2024.1.1,None,2024-04-28 12h06.14.539787 -0500,
None,29,brown,0,9,9,9,0,14,14,14,31.101722299999892,,,,,,,,,,,,,,,31.075081599999976,31.101722299999892,31.175368700000035,584891,001,2024-04-28_12h05.51.758,ArchivoPrueba,2024.1.1,None,2024-04-28 12h06.14.539787 -0500,
None,31,purple,0,9,9,9,0,15,15,15,31.201713599999493,,,,,,,,,,,,,,,31.17566739999893,31.201713599999493,31.275505699999485,584891,001,2024-04-28_12h05.51.758,ArchivoPrueba,2024.1.1,None,2024-04-28 12h06.14.539787 -0500,
None,33,green,0,9,9,9,0,16,16,16,31.301766299999144,,,,,,,,,,,,,,,31.275812299998506,31.301766299999144,31.374526499999774,584891,001,2024-04-28_12h05.51.758,ArchivoPrueba,2024.1.1,None,2024-04-28 12h06.14.539787 -0500,
None,35,red,0,9,9,9,0,17,17,17,31.401462899999387,,,,,,,,,,,,,,,31.374870299998292,31.401462899999387,31.474433299999873,584891,001,2024-04-28_12h05.51.758,ArchivoPrueba,2024.1.1,None,2024-04-28 12h06.14.539787 -0500,
None,37,white,0,9,9,9,0,18,18,18,31.501408000000083,,,,,,,,,,,,,,,31.474914599999465,31.501408000000083,31.574094499999774,584891,001,2024-04-28_12h05.51.758,ArchivoPrueba,2024.1.1,None,2024-04-28 12h06.14.539787 -0500,
None,39,blue,0,9,9,9,0,19,19,19,31.60120949999873,,,,,,,,,,,,,,,31.57443559999956,31.60120949999873,31.67392039999868,584891,001,2024-04-28_12h05.51.758,ArchivoPrueba,2024.1.1,None,2024-04-28 12h06.14.539787 -0500,
¿Recuerda el recorrido desde su residencia hasta el centro de resonancia magnética?,19,red,0,9,9,9,,,,,,,,,,,,,,,,,,,,,,,584891,001,2024-04-28_12h05.51.758,ArchivoPrueba,2024.1.1,None,2024-04-28 12h06.14.539787 -0500,
¿Recuerda el recorrido que realiza desde su cama hasta la cocina de su residencia?,1,green,0,10,10,10,0,0,0,0,32.700593199999275,,,,,,,,,,,,31.674298399999316,31.701165799999217,32.67362069999945,32.684791299998324,32.700593199999275,32.77301129999978,584891,001,2024-04-28_12h05.51.758,ArchivoPrueba,2024.1.1,None,2024-04-28 12h06.14.539787 -0500,
¿Recuerda el trayecto que hace desde su casa hasta su lugar de trabajo?,3,red,0,10,10,10,0,1,1,1,32.80021029999989,,,,,,,,,,,,,,,32.77331679999952,32.80021029999989,32.87310379999872,584891,001,2024-04-28_12h05.51.758,ArchivoPrueba,2024.1.1,None,2024-04-28 12h06.14.539787 -0500,
¿Recuerda  algún inconveniente que ha  experimentado en el camino de su residencia a su lugar de trabajo?,5,white,0,10,10,10,0,2,2,2,32.89987029999975,,,,,,,,,,,,,,,32.87340309999854,32.89987029999975,32.97299469999962,584891,001,2024-04-28_12h05.51.758,ArchivoPrueba,2024.1.1,None,2024-04-28 12h06.14.539787 -0500,
¿Recuerda si hay algún lugar u objeto en su camino hacia el trabajo que le llame la atención?,7,blue,0,10,10,10,0,3,3,3,33.00007749999895,,,,,,,,,,,,,,,32.973294199999145,33.00007749999895,33.07324079999853,584891,001,2024-04-28_12h05.51.758,ArchivoPrueba,2024.1.1,None,2024-04-28 12h06.14.539787 -0500,
" ¿Recuerda el recorrido desde la entrada de su lugar de trabajo hasta su oficina, donde realiza sus funciones?",9,yellow,0,10,10,10,0,4,4,4,33.099848799998654,,,,,,,,,,,,,,,33.0735124999992,33.099848799998654,33.17350769999939,584891,001,2024-04-28_12h05.51.758,ArchivoPrueba,2024.1.1,None,2024-04-28 12h06.14.539787 -0500,
¿Recuerda alguna actividad que realice durante los viajes de regreso a casa desde el trabajo para relajarse?,11,orange,0,10,10,10,0,5,5,5,33.19976789999964,,,,,,,,,,,,,,,33.173845499999516,33.19976789999964,33.27301299999999,584891,001,2024-04-28_12h05.51.758,ArchivoPrueba,2024.1.1,None,2024-04-28 12h06.14.539787 -0500,
¿Recuerda el trayecto que realiza desde su casa hasta el lugar donde realiza sus compras?,13,brown,0,10,10,10,0,6,6,6,33.299809999998615,,,,,,,,,,,,,,,33.27330889999939,33.299809999998615,33.37296279999828,584891,001,2024-04-28_12h05.51.758,ArchivoPrueba,2024.1.1,None,2024-04-28 12h06.14.539787 -0500,
¿Recuerda alguna situación divertida o interesante que haya experimentado durante el recorrido hacia el lugar de compras?,15,purple,0,10,10,10,0,7,7,7,33.399740399998336,,,,,,,,,,,,,,,33.373252699999284,33.399740399998336,33.472762800000055,584891,001,2024-04-28_12h05.51.758,ArchivoPrueba,2024.1.1,None,2024-04-28 12h06.14.539787 -0500,
 ¿Recuerda qué es lo primero que ve al llegar al lugar donde realiza sus compras?,17,green,0,10,10,10,0,8,8,8,33.49961079999957,,,,,,,,,,,,,,,33.47311189999891,33.49961079999957,33.57358369999929,584891,001,2024-04-28_12h05.51.758,ArchivoPrueba,2024.1.1,None,2024-04-28 12h06.14.539787 -0500,
¿Recuerda el recorrido desde su residencia hasta el centro de resonancia magnética?,19,red,0,10,10,10,0,9,9,9,33.599520999998276,,,,,,,,,,,,,,,33.573933199999374,33.599520999998276,33.673140999999305,584891,001,2024-04-28_12h05.51.758,ArchivoPrueba,2024.1.1,None,2024-04-28 12h06.14.539787 -0500,
None,21,white,0,10,10,10,0,10,10,10,33.69945860000007,,,,,,,,,,,,,,,33.673446999999214,33.69945860000007,33.77216419999968,584891,001,2024-04-28_12h05.51.758,ArchivoPrueba,2024.1.1,None,2024-04-28 12h06.14.539787 -0500,
None,23,blue,0,10,10,10,0,11,11,11,33.799831399999675,,,,,,,,,,,,,,,33.77247829999942,33.799831399999675,33.87262269999883,584891,001,2024-04-28_12h05.51.758,ArchivoPrueba,2024.1.1,None,2024-04-28 12h06.14.539787 -0500,
None,25,yellow,0,10,10,10,0,12,12,12,33.89921659999891,,,,,,,,,,,,,,,33.872974999998405,33.89921659999891,33.972179599999436,584891,001,2024-04-28_12h05.51.758,ArchivoPrueba,2024.1.1,None,2024-04-28 12h06.14.539787 -0500,
None,27,orange,0,10,10,10,0,13,13,13,33.998859499999526,,,,,,,,,,,,,,,33.97250649999842,33.998859499999526,34.072376999998596,584891,001,2024-04-28_12h05.51.758,ArchivoPrueba,2024.1.1,None,2024-04-28 12h06.14.539787 -0500,
None,29,brown,0,10,10,10,0,14,14,14,34.09889219999968,,,,,,,,,,,,,,,34.07264959999884,34.09889219999968,34.17239619999964,584891,001,2024-04-28_12h05.51.758,ArchivoPrueba,2024.1.1,None,2024-04-28 12h06.14.539787 -0500,
None,31,purple,0,10,10,10,0,15,15,15,34.19892989999971,,,,,,,,,,,,,,,34.17266909999853,34.19892989999971,34.27232959999856,584891,001,2024-04-28_12h05.51.758,ArchivoPrueba,2024.1.1,None,2024-04-28 12h06.14.539787 -0500,
None,33,green,0,10,10,10,0,16,16,16,34.29893209999864,,,,,,,,,,,,,,,34.27260209999986,34.29893209999864,34.37284059999911,584891,001,2024-04-28_12h05.51.758,ArchivoPrueba,2024.1.1,None,2024-04-28 12h06.14.539787 -0500,
None,35,red,0,10,10,10,0,17,17,17,34.398743799998556,,,,,,,,,,,,,,,34.3731519999983,34.398743799998556,34.471681299999545,584891,001,2024-04-28_12h05.51.758,ArchivoPrueba,2024.1.1,None,2024-04-28 12h06.14.539787 -0500,
None,37,white,0,10,10,10,0,18,18,18,34.4987928999999,,,,,,,,,,,,,,,34.47207459999845,34.4987928999999,34.57316589999937,584891,001,2024-04-28_12h05.51.758,ArchivoPrueba,2024.1.1,None,2024-04-28 12h06.14.539787 -0500,
None,39,blue,0,10,10,10,0,19,19,19,34.598883799999385,,,,,,,,,,,,,,,34.573571699998865,34.598883799999385,34.671555799999624,584891,001,2024-04-28_12h05.51.758,ArchivoPrueba,2024.1.1,None,2024-04-28 12h06.14.539787 -0500,
None,21,white,0,10,10,10,,,,,,,,,,,,,,,,,,,,,,,584891,001,2024-04-28_12h05.51.758,ArchivoPrueba,2024.1.1,None,2024-04-28 12h06.14.539787 -0500,
¿Recuerda el recorrido que realiza desde su cama hasta la cocina de su residencia?,1,green,0,11,11,11,0,0,0,0,35.697534499999165,,,,,,,,,,,,34.67190129999835,34.698404999999184,35.671051199999056,35.68150599999899,35.697534499999165,35.77029499999844,584891,001,2024-04-28_12h05.51.758,ArchivoPrueba,2024.1.1,None,2024-04-28 12h06.14.539787 -0500,
¿Recuerda el trayecto que hace desde su casa hasta su lugar de trabajo?,3,red,0,11,11,11,0,1,1,1,35.79753279999932,,,,,,,,,,,,,,,35.77058570000008,35.79753279999932,35.871217599999,584891,001,2024-04-28_12h05.51.758,ArchivoPrueba,2024.1.1,None,2024-04-28 12h06.14.539787 -0500,
¿Recuerda  algún inconveniente que ha  experimentado en el camino de su residencia a su lugar de trabajo?,5,white,0,11,11,11,0,2,2,2,35.89749679999841,,,,,,,,,,,,,,,35.87159239999892,35.89749679999841,35.971078900000066,584891,001,2024-04-28_12h05.51.758,ArchivoPrueba,2024.1.1,None,2024-04-28 12h06.14.539787 -0500,
¿Recuerda si hay algún lugar u objeto en su camino hacia el trabajo que le llame la atención?,7,blue,0,11,11,11,0,3,3,3,35.997100799999316,,,,,,,,,,,,,,,35.9714587999988,35.997100799999316,36.07087899999897,584891,001,2024-04-28_12h05.51.758,ArchivoPrueba,2024.1.1,None,2024-04-28 12h06.14.539787 -0500,
" ¿Recuerda el recorrido desde la entrada de su lugar de trabajo hasta su oficina, donde realiza sus funciones?",9,yellow,0,11,11,11,0,4,4,4,36.0972600999994,,,,,,,,,,,,,,,36.07116389999828,36.0972600999994,36.17023059999883,584891,001,2024-04-28_12h05.51.758,ArchivoPrueba,2024.1.1,None,2024-04-28 12h06.14.539787 -0500,
¿Recuerda alguna actividad que realice durante los viajes de regreso a casa desde el trabajo para relajarse?,11,orange,0,11,11,11,0,5,5,5,36.19708389999869,,,,,,,,,,,,,,,36.170546499999546,36.19708389999869,36.27033839999967,584891,001,2024-04-28_12h05.51.758,ArchivoPrueba,2024.1.1,None,2024-04-28 12h06.14.539787 -0500,
¿Recuerda el trayecto que realiza desde su casa hasta el lugar donde realiza sus compras?,13,brown,0,11,11,11,0,6,6,6,36.297061599998415,,,,,,,,,,,,,,,36.270633299998735,36.297061599998415,36.36979229999997,584891,001,2024-04-28_12h05.51.758,ArchivoPrueba,2024.1.1,None,2024-04-28 12h06.14.539787 -0500,
¿Recuerda alguna situación divertida o interesante que haya experimentado durante el recorrido hacia el lugar de compras?,15,purple,0,11,11,11,0,7,7,7,36.39708799999971,,,,,,,,,,,,,,,36.37008379999861,36.39708799999971,36.47018649999882,584891,001,2024-04-28_12h05.51.758,ArchivoPrueba,2024.1.1,None,2024-04-28 12h06.14.539787 -0500,
 ¿Recuerda qué es lo primero que ve al llegar al lugar donde realiza sus compras?,17,green,0,11,11,11,0,8,8,8,36.49705149999863,,,,,,,,,,,,,,,36.47052049999911,36.49705149999863,36.5695958999986,584891,001,2024-04-28_12h05.51.758,ArchivoPrueba,2024.1.1,None,2024-04-28 12h06.14.539787 -0500,
¿Recuerda el recorrido desde su residencia hasta el centro de resonancia magnética?,19,red,0,11,11,11,0,9,9,9,36.59690859999864,,,,,,,,,,,,,,,36.5698700999983,36.59690859999864,36.669757699999536,584891,001,2024-04-28_12h05.51.758,ArchivoPrueba,2024.1.1,None,2024-04-28 12h06.14.539787 -0500,
None,21,white,0,11,11,11,0,10,10,10,36.69681579999997,,,,,,,,,,,,,,,36.67007129999911,36.69681579999997,36.769757899999604,584891,001,2024-04-28_12h05.51.758,ArchivoPrueba,2024.1.1,None,2024-04-28 12h06.14.539787 -0500,
None,23,blue,0,11,11,11,0,11,11,11,36.796554199998354,,,,,,,,,,,,,,,36.77005829999871,36.796554199998354,36.86969979999958,584891,001,2024-04-28_12h05.51.758,ArchivoPrueba,2024.1.1,None,2024-04-28 12h06.14.539787 -0500,
None,25,yellow,0,11,11,11,0,12,12,12,36.89650029999939,,,,,,,,,,,,,,,36.870009799999025,36.89650029999939,36.969353699998464,584891,001,2024-04-28_12h05.51.758,ArchivoPrueba,2024.1.1,None,2024-04-28 12h06.14.539787 -0500,
None,27,orange,0,11,11,11,0,13,13,13,36.99650870000005,,,,,,,,,,,,,,,36.969687099999646,36.99650870000005,37.0698326999991,584891,001,2024-04-28_12h05.51.758,ArchivoPrueba,2024.1.1,None,2024-04-28 12h06.14.539787 -0500,
None,29,brown,0,11,11,11,0,14,14,14,37.09613959999842,,,,,,,,,,,,,,,37.07010399999854,37.09613959999842,37.16961909999918,584891,001,2024-04-28_12h05.51.758,ArchivoPrueba,2024.1.1,None,2024-04-28 12h06.14.539787 -0500,
None,31,purple,0,11,11,11,0,15,15,15,37.19619869999951,,,,,,,,,,,,,,,37.16991439999947,37.19619869999951,37.26929249999921,584891,001,2024-04-28_12h05.51.758,ArchivoPrueba,2024.1.1,None,2024-04-28 12h06.14.539787 -0500,
None,33,green,0,11,11,11,0,16,16,16,37.29596099999981,,,,,,,,,,,,,,,37.26963709999836,37.29596099999981,37.36990369999876,584891,001,2024-04-28_12h05.51.758,ArchivoPrueba,2024.1.1,None,2024-04-28 12h06.14.539787 -0500,
None,35,red,0,11,11,11,0,17,17,17,37.39611479999985,,,,,,,,,,,,,,,37.37021659999846,37.39611479999985,37.46963809999943,584891,001,2024-04-28_12h05.51.758,ArchivoPrueba,2024.1.1,None,2024-04-28 12h06.14.539787 -0500,
None,37,white,0,11,11,11,0,18,18,18,37.49598409999999,,,,,,,,,,,,,,,37.46990719999849,37.49598409999999,37.58605069999976,584891,001,2024-04-28_12h05.51.758,ArchivoPrueba,2024.1.1,None,2024-04-28 12h06.14.539787 -0500,
None,39,blue,0,11,11,11,0,19,19,19,37.61252559999957,,,,,,,,,,,,,,,37.58642359999976,37.61252559999957,37.68557979999969,584891,001,2024-04-28_12h05.51.758,ArchivoPrueba,2024.1.1,None,2024-04-28 12h06.14.539787 -0500,
None,23,blue,0,11,11,11,,,,,,,,,,,,,,,,,,,,,,,584891,001,2024-04-28_12h05.51.758,ArchivoPrueba,2024.1.1,None,2024-04-28 12h06.14.539787 -0500,
¿Recuerda el recorrido que realiza desde su cama hasta la cocina de su residencia?,1,green,0,12,12,12,0,0,0,0,38.71171299999878,,,,,,,,,,,,37.68591959999867,37.71272789999966,38.685018899999704,38.694887699999526,38.71171299999878,38.78438679999999,584891,001,2024-04-28_12h05.51.758,ArchivoPrueba,2024.1.1,None,2024-04-28 12h06.14.539787 -0500,
¿Recuerda el trayecto que hace desde su casa hasta su lugar de trabajo?,3,red,0,12,12,12,0,1,1,1,38.811673499998506,,,,,,,,,,,,,,,38.784771399999954,38.811673499998506,38.88503209999908,584891,001,2024-04-28_12h05.51.758,ArchivoPrueba,2024.1.1,None,2024-04-28 12h06.14.539787 -0500,
¿Recuerda  algún inconveniente que ha  experimentado en el camino de su residencia a su lugar de trabajo?,5,white,0,12,12,12,0,2,2,2,38.91153699999995,,,,,,,,,,,,,,,38.88530569999966,38.91153699999995,38.98449789999904,584891,001,2024-04-28_12h05.51.758,ArchivoPrueba,2024.1.1,None,2024-04-28 12h06.14.539787 -0500,
¿Recuerda si hay algún lugar u objeto en su camino hacia el trabajo que le llame la atención?,7,blue,0,12,12,12,0,3,3,3,39.01169189999928,,,,,,,,,,,,,,,38.98488869999892,39.01169189999928,39.084595099999206,584891,001,2024-04-28_12h05.51.758,ArchivoPrueba,2024.1.1,None,2024-04-28 12h06.14.539787 -0500,
" ¿Recuerda el recorrido desde la entrada de su lugar de trabajo hasta su oficina, donde realiza sus funciones?",9,yellow,0,12,12,12,0,4,4,4,39.1113179999993,,,,,,,,,,,,,,,39.08490689999962,39.1113179999993,39.18464939999831,584891,001,2024-04-28_12h05.51.758,ArchivoPrueba,2024.1.1,None,2024-04-28 12h06.14.539787 -0500,
¿Recuerda alguna actividad que realice durante los viajes de regreso a casa desde el trabajo para relajarse?,11,orange,0,12,12,12,0,5,5,5,39.21142199999849,,,,,,,,,,,,,,,39.184941499999695,39.21142199999849,39.28403929999877,584891,001,2024-04-28_12h05.51.758,ArchivoPrueba,2024.1.1,None,2024-04-28 12h06.14.539787 -0500,
¿Recuerda el trayecto que realiza desde su casa hasta el lugar donde realiza sus compras?,13,brown,0,12,12,12,0,6,6,6,39.31123679999837,,,,,,,,,,,,,,,39.284336699998676,39.31123679999837,39.384061999999176,584891,001,2024-04-28_12h05.51.758,ArchivoPrueba,2024.1.1,None,2024-04-28 12h06.14.539787 -0500,
¿Recuerda alguna situación divertida o interesante que haya experimentado durante el recorrido hacia el lugar de compras?,15,purple,0,12,12,12,0,7,7,7,39.41126709999844,,,,,,,,,,,,,,,39.38438249999854,39.41126709999844,39.48379979999845,584891,001,2024-04-28_12h05.51.758,ArchivoPrueba,2024.1.1,None,2024-04-28 12h06.14.539787 -0500,
 ¿Recuerda qué es lo primero que ve al llegar al lugar donde realiza sus compras?,17,green,0,12,12,12,0,8,8,8,39.51095549999991,,,,,,,,,,,,,,,39.48407269999916,39.51095549999991,39.583879499999966,584891,001,2024-04-28_12h05.51.758,ArchivoPrueba,2024.1.1,None,2024-04-28 12h06.14.539787 -0500,
¿Recuerda el recorrido desde su residencia hasta el centro de resonancia magnética?,19,red,0,12,12,12,0,9,9,9,39.61089009999887,,,,,,,,,,,,,,,39.58418769999844,39.61089009999887,39.684231100000034,584891,001,2024-04-28_12h05.51.758,ArchivoPrueba,2024.1.1,None,2024-04-28 12h06.14.539787 -0500,
None,21,white,0,12,12,12,0,10,10,10,39.71072869999989,,,,,,,,,,,,,,,39.684504099999685,39.71072869999989,39.78375219999907,584891,001,2024-04-28_12h05.51.758,ArchivoPrueba,2024.1.1,None,2024-04-28 12h06.14.539787 -0500,
None,23,blue,0,12,12,12,0,11,11,11,39.81070029999864,,,,,,,,,,,,,,,39.78405269999894,39.81070029999864,39.884050699998625,584891,001,2024-04-28_12h05.51.758,ArchivoPrueba,2024.1.1,None,2024-04-28 12h06.14.539787 -0500,
None,25,yellow,0,12,12,12,0,12,12,12,39.91066580000006,,,,,,,,,,,,,,,39.88432329999887,39.91066580000006,39.98377569999866,584891,001,2024-04-28_12h05.51.758,ArchivoPrueba,2024.1.1,None,2024-04-28 12h06.14.539787 -0500,
None,27,orange,0,12,12,12,0,13,13,13,40.01054369999838,,,,,,,,,,,,,,,39.98406579999937,40.01054369999838,40.083682399999816,584891,001,2024-04-28_12h05.51.758,ArchivoPrueba,2024.1.1,None,2024-04-28 12h06.14.539787 -0500,
None,29,brown,0,12,12,12,0,14,14,14,40.11060779999934,,,,,,,,,,,,,,,40.08397100000002,40.11060779999934,40.18466149999949,584891,001,2024-04-28_12h05.51.758,ArchivoPrueba,2024.1.1,None,2024-04-28 12h06.14.539787 -0500,
None,31,purple,0,12,12,12,0,15,15,15,40.210657299998275,,,,,,,,,,,,,,,40.184958599998936,40.210657299998275,40.283521699999255,584891,001,2024-04-28_12h05.51.758,ArchivoPrueba,2024.1.1,None,2024-04-28 12h06.14.539787 -0500,
None,33,green,0,12,12,12,0,16,16,16,40.310537999999724,,,,,,,,,,,,,,,40.28387109999858,40.310537999999724,40.38305229999969,584891,001,2024-04-28_12h05.51.758,ArchivoPrueba,2024.1.1,None,2024-04-28 12h06.14.539787 -0500,
None,35,red,0,12,12,12,0,17,17,17,40.410356299998966,,,,,,,,,,,,,,,40.383373499998925,40.410356299998966,40.48312059999989,584891,001,2024-04-28_12h05.51.758,ArchivoPrueba,2024.1.1,None,2024-04-28 12h06.14.539787 -0500,
None,37,white,0,12,12,12,0,18,18,18,40.51018979999935,,,,,,,,,,,,,,,40.48341459999938,40.51018979999935,40.582986399998845,584891,001,2024-04-28_12h05.51.758,ArchivoPrueba,2024.1.1,None,2024-04-28 12h06.14.539787 -0500,
None,39,blue,0,12,12,12,0,19,19,19,40.61017449999963,,,,,,,,,,,,,,,40.58330769999884,40.61017449999963,40.68302499999845,584891,001,2024-04-28_12h05.51.758,ArchivoPrueba,2024.1.1,None,2024-04-28 12h06.14.539787 -0500,
None,25,yellow,0,12,12,12,,,,,,,,,,,,,,,,,,,,,,,584891,001,2024-04-28_12h05.51.758,ArchivoPrueba,2024.1.1,None,2024-04-28 12h06.14.539787 -0500,
¿Recuerda el recorrido que realiza desde su cama hasta la cocina de su residencia?,1,green,0,13,13,13,0,0,0,0,41.70894549999866,,,,,,,,,,,,40.683380299999044,40.71015819999957,41.68290749999869,41.693253799998274,41.70894549999866,41.782177999999476,584891,001,2024-04-28_12h05.51.758,ArchivoPrueba,2024.1.1,None,2024-04-28 12h06.14.539787 -0500,
¿Recuerda el trayecto que hace desde su casa hasta su lugar de trabajo?,3,red,0,13,13,13,0,1,1,1,41.808862599998974,,,,,,,,,,,,,,,41.78246769999896,41.808862599998974,41.88258859999951,584891,001,2024-04-28_12h05.51.758,ArchivoPrueba,2024.1.1,None,2024-04-28 12h06.14.539787 -0500,
¿Recuerda  algún inconveniente que ha  experimentado en el camino de su residencia a su lugar de trabajo?,5,white,0,13,13,13,0,2,2,2,41.90882789999887,,,,,,,,,,,,,,,41.88295879999896,41.90882789999887,41.98206769999888,584891,001,2024-04-28_12h05.51.758,ArchivoPrueba,2024.1.1,None,2024-04-28 12h06.14.539787 -0500,
¿Recuerda si hay algún lugar u objeto en su camino hacia el trabajo que le llame la atención?,7,blue,0,13,13,13,0,3,3,3,42.00872769999842,,,,,,,,,,,,,,,41.98234289999891,42.00872769999842,42.08170169999903,584891,001,2024-04-28_12h05.51.758,ArchivoPrueba,2024.1.1,None,2024-04-28 12h06.14.539787 -0500,
" ¿Recuerda el recorrido desde la entrada de su lugar de trabajo hasta su oficina, donde realiza sus funciones?",9,yellow,0,13,13,13,0,4,4,4,42.108852399998796,,,,,,,,,,,,,,,42.08206709999831,42.108852399998796,42.18283499999961,584891,001,2024-04-28_12h05.51.758,ArchivoPrueba,2024.1.1,None,2024-04-28 12h06.14.539787 -0500,
¿Recuerda alguna actividad que realice durante los viajes de regreso a casa desde el trabajo para relajarse?,11,orange,0,13,13,13,0,5,5,5,42.20876589999898,,,,,,,,,,,,,,,42.18313109999872,42.20876589999898,42.28162069999962,584891,001,2024-04-28_12h05.51.758,ArchivoPrueba,2024.1.1,None,2024-04-28 12h06.14.539787 -0500,
¿Recuerda el trayecto que realiza desde su casa hasta el lugar donde realiza sus compras?,13,brown,0,13,13,13,0,6,6,6,42.308639399998356,,,,,,,,,,,,,,,42.2820028999995,42.308639399998356,42.381660699998974,584891,001,2024-04-28_12h05.51.758,ArchivoPrueba,2024.1.1,None,2024-04-28 12h06.14.539787 -0500,
¿Recuerda alguna situación divertida o interesante que haya experimentado durante el recorrido hacia el lugar de compras?,15,purple,0,13,13,13,0,7,7,7,42.40852399999858,,,,,,,,,,,,,,,42.38196739999876,42.40852399999858,42.48215529999834,584891,001,2024-04-28_12h05.51.758,ArchivoPrueba,2024.1.1,None,2024-04-28 12h06.14.539787 -0500,
 ¿Recuerda qué es lo primero que ve al llegar al lugar donde realiza sus compras?,17,green,0,13,13,13,0,8,8,8,42.50808529999995,,,,,,,,,,,,,,,42.48248739999872,42.50808529999995,42.5812195999988,584891,001,2024-04-28_12h05.51.758,ArchivoPrueba,2024.1.1,None,2024-04-28 12h06.14.539787 -0500,
¿Recuerda el recorrido desde su residencia hasta el centro de resonancia magnética?,19,red,0,13,13,13,0,9,9,9,42.60805699999946,,,,,,,,,,,,,,,42.58155519999855,42.60805699999946,42.68101779999961,584891,001,2024-04-28_12h05.51.758,ArchivoPrueba,2024.1.1,None,2024-04-28 12h06.14.539787 -0500,
None,21,white,0,13,13,13,0,10,10,10,42.70809310000004,,,,,,,,,,,,,,,42.681390299998384,42.70809310000004,42.781162100000074,584891,001,2024-04-28_12h05.51.758,ArchivoPrueba,2024.1.1,None,2024-04-28 12h06.14.539787 -0500,
None,23,blue,0,13,13,13,0,11,11,11,42.808100499998545,,,,,,,,,,,,,,,42.781522100000075,42.808100499998545,42.88071619999937,584891,001,2024-04-28_12h05.51.758,ArchivoPrueba,2024.1.1,None,2024-04-28 12h06.14.539787 -0500,
None,25,yellow,0,13,13,13,0,12,12,12,42.894129399999656,,,,,,,,,,,,,,,42.88098849999915,42.894129399999656,42.98107369999889,584891,001,2024-04-28_12h05.51.758,ArchivoPrueba,2024.1.1,None,2024-04-28 12h06.14.539787 -0500,
None,27,orange,0,13,13,13,0,13,13,13,43.007853899998736,,,,,,,,,,,,,,,42.98145419999855,43.007853899998736,43.08094219999839,584891,001,2024-04-28_12h05.51.758,ArchivoPrueba,2024.1.1,None,2024-04-28 12h06.14.539787 -0500,
None,29,brown,0,13,13,13,0,14,14,14,43.10772609999913,,,,,,,,,,,,,,,43.08130579999852,43.10772609999913,43.18072519999987,584891,001,2024-04-28_12h05.51.758,ArchivoPrueba,2024.1.1,None,2024-04-28 12h06.14.539787 -0500,
None,31,purple,0,13,13,13,0,15,15,15,43.20775709999907,,,,,,,,,,,,,,,43.18104679999851,43.20775709999907,43.28095519999988,584891,001,2024-04-28_12h05.51.758,ArchivoPrueba,2024.1.1,None,2024-04-28 12h06.14.539787 -0500,
None,33,green,0,13,13,13,0,16,16,16,43.30766079999921,,,,,,,,,,,,,,,43.28122899999835,43.30766079999921,43.38079859999925,584891,001,2024-04-28_12h05.51.758,ArchivoPrueba,2024.1.1,None,2024-04-28 12h06.14.539787 -0500,
None,35,red,0,13,13,13,0,17,17,17,43.407726899999034,,,,,,,,,,,,,,,43.3811087999984,43.407726899999034,43.48079509999843,584891,001,2024-04-28_12h05.51.758,ArchivoPrueba,2024.1.1,None,2024-04-28 12h06.14.539787 -0500,
None,37,white,0,13,13,13,0,18,18,18,43.507629599998836,,,,,,,,,,,,,,,43.48110489999999,43.507629599998836,43.58051569999952,584891,001,2024-04-28_12h05.51.758,ArchivoPrueba,2024.1.1,None,2024-04-28 12h06.14.539787 -0500,
None,39,blue,0,13,13,13,0,19,19,19,43.607462099998884,,,,,,,,,,,,,,,43.58089319999999,43.607462099998884,43.680513899998914,584891,001,2024-04-28_12h05.51.758,ArchivoPrueba,2024.1.1,None,2024-04-28 12h06.14.539787 -0500,
None,27,orange,0,13,13,13,,,,,,,,,,,,,,,,,,,,,,,584891,001,2024-04-28_12h05.51.758,ArchivoPrueba,2024.1.1,None,2024-04-28 12h06.14.539787 -0500,
¿Recuerda el recorrido que realiza desde su cama hasta la cocina de su residencia?,1,green,0,14,14,14,0,0,0,0,44.706195099999604,,,,,,,,,,,,43.680919799999174,43.707340799999656,44.680744100000084,44.69176689999949,44.706195099999604,44.77967929999977,584891,001,2024-04-28_12h05.51.758,ArchivoPrueba,2024.1.1,None,2024-04-28 12h06.14.539787 -0500,
¿Recuerda el trayecto que hace desde su casa hasta su lugar de trabajo?,3,red,0,14,14,14,0,1,1,1,44.80637049999859,,,,,,,,,,,,,,,44.7799544999998,44.80637049999859,44.87910749999901,584891,001,2024-04-28_12h05.51.758,ArchivoPrueba,2024.1.1,None,2024-04-28 12h06.14.539787 -0500,
¿Recuerda  algún inconveniente que ha  experimentado en el camino de su residencia a su lugar de trabajo?,5,white,0,14,14,14,0,2,2,2,44.90616789999876,,,,,,,,,,,,,,,44.87946479999846,44.90616789999876,44.979405199999746,584891,001,2024-04-28_12h05.51.758,ArchivoPrueba,2024.1.1,None,2024-04-28 12h06.14.539787 -0500,
¿Recuerda si hay algún lugar u objeto en su camino hacia el trabajo que le llame la atención?,7,blue,0,14,14,14,0,3,3,3,45.00605319999886,,,,,,,,,,,,,,,44.979708499999106,45.00605319999886,45.07918839999911,584891,001,2024-04-28_12h05.51.758,ArchivoPrueba,2024.1.1,None,2024-04-28 12h06.14.539787 -0500,
" ¿Recuerda el recorrido desde la entrada de su lugar de trabajo hasta su oficina, donde realiza sus funciones?",9,yellow,0,14,14,14,0,4,4,4,45.106219399998736,,,,,,,,,,,,,,,45.079581099998904,45.106219399998736,45.17888409999978,584891,001,2024-04-28_12h05.51.758,ArchivoPrueba,2024.1.1,None,2024-04-28 12h06.14.539787 -0500,
¿Recuerda alguna actividad que realice durante los viajes de regreso a casa desde el trabajo para relajarse?,11,orange,0,14,14,14,0,5,5,5,45.20611629999985,,,,,,,,,,,,,,,45.17920029999914,45.20611629999985,45.27910029999839,584891,001,2024-04-28_12h05.51.758,ArchivoPrueba,2024.1.1,None,2024-04-28 12h06.14.539787 -0500,
¿Recuerda el trayecto que realiza desde su casa hasta el lugar donde realiza sus compras?,13,brown,0,14,14,14,0,6,6,6,45.305957199998375,,,,,,,,,,,,,,,45.279452599999786,45.305957199998375,45.37871809999888,584891,001,2024-04-28_12h05.51.758,ArchivoPrueba,2024.1.1,None,2024-04-28 12h06.14.539787 -0500,
¿Recuerda alguna situación divertida o interesante que haya experimentado durante el recorrido hacia el lugar de compras?,15,purple,0,14,14,14,0,7,7,7,45.40588629999911,,,,,,,,,,,,,,,45.379027699998915,45.40588629999911,45.47895679999965,584891,001,2024-04-28_12h05.51.758,ArchivoPrueba,2024.1.1,None,2024-04-28 12h06.14.539787 -0500,
 ¿Recuerda qué es lo primero que ve al llegar al lugar donde realiza sus compras?,17,green,0,14,14,14,0,8,8,8,45.505396499998824,,,,,,,,,,,,,,,45.47928379999939,45.505396499998824,45.5802807,584891,001,2024-04-28_12h05.51.758,ArchivoPrueba,2024.1.1,None,2024-04-28 12h06.14.539787 -0500,
¿Recuerda el recorrido desde su residencia hasta el centro de resonancia magnética?,19,red,0,14,14,14,0,9,9,9,45.60567439999977,,,,,,,,,,,,,,,45.58063249999941,45.60567439999977,45.67831750000005,584891,001,2024-04-28_12h05.51.758,ArchivoPrueba,2024.1.1,None,2024-04-28 12h06.14.539787 -0500,
None,21,white,0,14,14,14,0,10,10,10,45.705577799999446,,,,,,,,,,,,,,,45.67861029999949,45.705577799999446,45.77872629999911,584891,001,2024-04-28_12h05.51.758,ArchivoPrueba,2024.1.1,None,2024-04-28 12h06.14.539787 -0500,
None,23,blue,0,14,14,14,0,11,11,11,45.805169199999,,,,,,,,,,,,,,,45.77899669999897,45.805169199999,45.87858859999869,584891,001,2024-04-28_12h05.51.758,ArchivoPrueba,2024.1.1,None,2024-04-28 12h06.14.539787 -0500,
None,25,yellow,0,14,14,14,0,12,12,12,45.90546879999965,,,,,,,,,,,,,,,45.87886619999881,45.90546879999965,45.97883089999959,584891,001,2024-04-28_12h05.51.758,ArchivoPrueba,2024.1.1,None,2024-04-28 12h06.14.539787 -0500,
None,27,orange,0,14,14,14,0,13,13,13,46.00519859999986,,,,,,,,,,,,,,,45.97913410000001,46.00519859999986,46.07823269999972,584891,001,2024-04-28_12h05.51.758,ArchivoPrueba,2024.1.1,None,2024-04-28 12h06.14.539787 -0500,
None,29,brown,0,14,14,14,0,14,14,14,46.105173699999796,,,,,,,,,,,,,,,46.07862279999972,46.105173699999796,46.17824029999974,584891,001,2024-04-28_12h05.51.758,ArchivoPrueba,2024.1.1,None,2024-04-28 12h06.14.539787 -0500,
None,31,purple,0,14,14,14,0,15,15,15,46.20518289999927,,,,,,,,,,,,,,,46.17860179999843,46.20518289999927,46.278821299998526,584891,001,2024-04-28_12h05.51.758,ArchivoPrueba,2024.1.1,None,2024-04-28 12h06.14.539787 -0500,
None,33,green,0,14,14,14,0,16,16,16,46.30516910000006,,,,,,,,,,,,,,,46.27913439999975,46.30516910000006,46.37800049999896,584891,001,2024-04-28_12h05.51.758,ArchivoPrueba,2024.1.1,None,2024-04-28 12h06.14.539787 -0500,
None,35,red,0,14,14,14,0,17,17,17,46.40488879999975,,,,,,,,,,,,,,,46.378331599999,46.40488879999975,46.47766809999848,584891,001,2024-04-28_12h05.51.758,ArchivoPrueba,2024.1.1,None,2024-04-28 12h06.14.539787 -0500,
None,37,white,0,14,14,14,0,18,18,18,46.50494089999847,,,,,,,,,,,,,,,46.47793719999936,46.50494089999847,46.57853279999836,584891,001,2024-04-28_12h05.51.758,ArchivoPrueba,2024.1.1,None,2024-04-28 12h06.14.539787 -0500,
None,39,blue,0,14,14,14,0,19,19,19,46.604880399998365,,,,,,,,,,,,,,,46.57881719999932,46.604880399998365,46.67842529999871,584891,001,2024-04-28_12h05.51.758,ArchivoPrueba,2024.1.1,None,2024-04-28 12h06.14.539787 -0500,
None,29,brown,0,14,14,14,,,,,,,,,,,,,,,,,,,,,,,584891,001,2024-04-28_12h05.51.758,ArchivoPrueba,2024.1.1,None,2024-04-28 12h06.14.539787 -0500,
¿Recuerda el recorrido que realiza desde su cama hasta la cocina de su residencia?,1,green,0,15,15,15,0,0,0,0,47.70387439999831,,,,,,,,,,,,46.67879549999998,46.705015799998364,47.67765650000001,47.68953529999999,47.70387439999831,47.77724339999986,584891,001,2024-04-28_12h05.51.758,ArchivoPrueba,2024.1.1,None,2024-04-28 12h06.14.539787 -0500,
¿Recuerda el trayecto que hace desde su casa hasta su lugar de trabajo?,3,red,0,15,15,15,0,1,1,1,47.80839949999972,,,,,,,,,,,,,,,47.777620099999695,47.80839949999972,47.87803629999871,584891,001,2024-04-28_12h05.51.758,ArchivoPrueba,2024.1.1,None,2024-04-28 12h06.14.539787 -0500,
¿Recuerda  algún inconveniente que ha  experimentado en el camino de su residencia a su lugar de trabajo?,5,white,0,15,15,15,0,2,2,2,47.90650569999889,,,,,,,,,,,,,,,47.87831489999917,47.90650569999889,47.97678839999935,584891,001,2024-04-28_12h05.51.758,ArchivoPrueba,2024.1.1,None,2024-04-28 12h06.14.539787 -0500,
¿Recuerda si hay algún lugar u objeto en su camino hacia el trabajo que le llame la atención?,7,blue,0,15,15,15,0,3,3,3,48.00364730000001,,,,,,,,,,,,,,,47.977083399999174,48.00364730000001,48.076698799999576,584891,001,2024-04-28_12h05.51.758,ArchivoPrueba,2024.1.1,None,2024-04-28 12h06.14.539787 -0500,
" ¿Recuerda el recorrido desde la entrada de su lugar de trabajo hasta su oficina, donde realiza sus funciones?",9,yellow,0,15,15,15,0,4,4,4,48.10348139999951,,,,,,,,,,,,,,,48.077011699999275,48.10348139999951,48.1781117999999,584891,001,2024-04-28_12h05.51.758,ArchivoPrueba,2024.1.1,None,2024-04-28 12h06.14.539787 -0500,
¿Recuerda alguna actividad que realice durante los viajes de regreso a casa desde el trabajo para relajarse?,11,orange,0,15,15,15,0,5,5,5,48.20355829999971,,,,,,,,,,,,,,,48.17845579999994,48.20355829999971,48.44079639999836,584891,001,2024-04-28_12h05.51.758,ArchivoPrueba,2024.1.1,None,2024-04-28 12h06.14.539787 -0500,
¿Recuerda el trayecto que realiza desde su casa hasta el lugar donde realiza sus compras?,13,brown,0,15,15,15,0,6,6,6,48.4739015999985,,,,,,,,,,,,,,,48.44109319999916,,48.44346139999834,584891,001,2024-04-28_12h05.51.758,ArchivoPrueba,2024.1.1,None,2024-04-28 12h06.14.539787 -0500,
¿Recuerda alguna situación divertida o interesante que haya experimentado durante el recorrido hacia el lugar de compras?,15,purple,0,15,15,15,0,7,7,7,48.4739015999985,,,,,,,,,,,,,,,48.44382779999978,48.4739015999985,48.477646399998775,584891,001,2024-04-28_12h05.51.758,ArchivoPrueba,2024.1.1,None,2024-04-28 12h06.14.539787 -0500,
 ¿Recuerda qué es lo primero que ve al llegar al lugar donde realiza sus compras?,17,green,0,15,15,15,0,8,8,8,48.503367599998455,,,,,,,,,,,,,,,48.477977499998815,48.503367599998455,48.578163099999074,584891,001,2024-04-28_12h05.51.758,ArchivoPrueba,2024.1.1,None,2024-04-28 12h06.14.539787 -0500,
¿Recuerda el recorrido desde su residencia hasta el centro de resonancia magnética?,19,red,0,15,15,15,0,9,9,9,48.603081100000054,,,,,,,,,,,,,,,48.578455299999405,48.603081100000054,48.676694199999474,584891,001,2024-04-28_12h05.51.758,ArchivoPrueba,2024.1.1,None,2024-04-28 12h06.14.539787 -0500,
None,21,white,0,15,15,15,0,10,10,10,48.703028099998846,,,,,,,,,,,,,,,48.67700579999837,48.703028099998846,48.77668099999937,584891,001,2024-04-28_12h05.51.758,ArchivoPrueba,2024.1.1,None,2024-04-28 12h06.14.539787 -0500,
None,23,blue,0,15,15,15,0,11,11,11,48.803600399998686,,,,,,,,,,,,,,,48.77699919999941,48.803600399998686,48.876730599999064,584891,001,2024-04-28_12h05.51.758,ArchivoPrueba,2024.1.1,None,2024-04-28 12h06.14.539787 -0500,
None,25,yellow,0,15,15,15,0,12,12,12,48.90275479999946,,,,,,,,,,,,,,,48.877056999999695,48.90275479999946,48.977347899999586,584891,001,2024-04-28_12h05.51.758,ArchivoPrueba,2024.1.1,None,2024-04-28 12h06.14.539787 -0500,
None,27,orange,0,15,15,15,0,13,13,13,49.00589199999922,,,,,,,,,,,,,,,48.9776742999984,49.00589199999922,49.077013799998895,584891,001,2024-04-28_12h05.51.758,ArchivoPrueba,2024.1.1,None,2024-04-28 12h06.14.539787 -0500,
None,29,brown,0,15,15,15,0,14,14,14,49.10292539999864,,,,,,,,,,,,,,,49.07730779999838,49.10292539999864,49.17644669999936,584891,001,2024-04-28_12h05.51.758,ArchivoPrueba,2024.1.1,None,2024-04-28 12h06.14.539787 -0500,
None,31,purple,0,15,15,15,0,15,15,15,49.20279589999882,,,,,,,,,,,,,,,49.17682259999856,49.20279589999882,49.276117299999896,584891,001,2024-04-28_12h05.51.758,ArchivoPrueba,2024.1.1,None,2024-04-28 12h06.14.539787 -0500,
None,33,green,0,15,15,15,0,16,16,16,49.30229529999997,,,,,,,,,,,,,,,49.27649439999914,49.30229529999997,49.37575339999967,584891,001,2024-04-28_12h05.51.758,ArchivoPrueba,2024.1.1,None,2024-04-28 12h06.14.539787 -0500,
None,35,red,0,15,15,15,0,17,17,17,49.402537299998585,,,,,,,,,,,,,,,49.37602389999847,49.402537299998585,49.47588639999958,584891,001,2024-04-28_12h05.51.758,ArchivoPrueba,2024.1.1,None,2024-04-28 12h06.14.539787 -0500,
None,37,white,0,15,15,15,0,18,18,18,49.50226819999989,,,,,,,,,,,,,,,49.47617959999843,49.50226819999989,49.57604259999971,584891,001,2024-04-28_12h05.51.758,ArchivoPrueba,2024.1.1,None,2024-04-28 12h06.14.539787 -0500,
None,39,blue,0,15,15,15,0,19,19,19,49.60225779999928,,,,,,,,,,,,,,,49.576472499999,49.60225779999928,49.675533199999336,584891,001,2024-04-28_12h05.51.758,ArchivoPrueba,2024.1.1,None,2024-04-28 12h06.14.539787 -0500,
None,31,purple,0,15,15,15,,,,,,,,,,,,,,,,,,,,,,,584891,001,2024-04-28_12h05.51.758,ArchivoPrueba,2024.1.1,None,2024-04-28 12h06.14.539787 -0500,
¿Recuerda el recorrido que realiza desde su cama hasta la cocina de su residencia?,1,green,0,16,16,16,0,0,0,0,50.71807159999844,,,,,,,,,,,,49.675922999998875,49.70241779999924,50.67595839999922,50.69281789999877,50.71807159999844,50.77497649999896,584891,001,2024-04-28_12h05.51.758,ArchivoPrueba,2024.1.1,None,2024-04-28 12h06.14.539787 -0500,
¿Recuerda el trayecto que hace desde su casa hasta su lugar de trabajo?,3,red,0,16,16,16,0,1,1,1,50.80122449999908,,,,,,,,,,,,,,,50.77527569999984,50.80122449999908,50.8746986999995,584891,001,2024-04-28_12h05.51.758,ArchivoPrueba,2024.1.1,None,2024-04-28 12h06.14.539787 -0500,
,,,,,,,,,,,50.901353199998994,,,,,,,,,,,,,,,50.875040299999455,50.901353199998994,,,,,,,,,
